#
# Results on Wednesday March 24 2021 22:40:11 UTC.
# USER AGENT: Mozilla/5.0 (Macintosh; Intel Mac OS X 11_2_3) AppleWebKit/537.36 (KHTML, like Gecko) Chrome/89.0.4389.90 Safari/537.36
# Design number was non-random = 2
#
# Columns below this comment are as follows:
# 1. Time results were received.
# 2. MD5 hash of participant's IP address.
# 3. Controller name.
# 4. Item number.
# 5. Element number.
# 6. Type.
# 7. Group.
# 8. Field name.
# 9. Field value.
1616625611,25effa3b776e1364d4f986838bbf7016,Form,2,0,intro,NULL,name,Elisabetta De Franco
1616625611,25effa3b776e1364d4f986838bbf7016,Form,2,0,intro,NULL,age,23
1616625611,25effa3b776e1364d4f986838bbf7016,Form,2,0,intro,NULL,bilingual_languages,English and French
1616625611,25effa3b776e1364d4f986838bbf7016,Form,2,0,intro,NULL,EngHist,I have been studying english since elementary school; I have obtained a B2 english level in 2014 (during my third year of high school)%2C and I am currently attending a course in preparation of the C1 exam at the University of Siena with prof. Ayres. %0AI want to take the exam because I'll have a certification of a level that I actually already have.  
1616625611,25effa3b776e1364d4f986838bbf7016,Form,2,0,intro,NULL,EngAct,yes
1616625611,25effa3b776e1364d4f986838bbf7016,Form,2,0,intro,NULL,EngAct,no
1616625611,25effa3b776e1364d4f986838bbf7016,Form,2,0,intro,NULL,EngAct,no
1616625611,25effa3b776e1364d4f986838bbf7016,Form,2,0,intro,NULL,EngAct,yes
1616625611,25effa3b776e1364d4f986838bbf7016,Form,2,0,intro,NULL,EngAct,no
1616625611,25effa3b776e1364d4f986838bbf7016,Form,2,0,intro,NULL,EngAct,no
1616625611,25effa3b776e1364d4f986838bbf7016,Form,2,0,intro,NULL,EngAct,no
1616625611,25effa3b776e1364d4f986838bbf7016,Form,2,0,intro,NULL,EngAct,no
1616625611,25effa3b776e1364d4f986838bbf7016,Form,2,0,intro,NULL,EngAct,yes
1616625611,25effa3b776e1364d4f986838bbf7016,Form,2,0,intro,NULL,EngAct,yes
1616625611,25effa3b776e1364d4f986838bbf7016,Form,2,0,intro,NULL,consent,yes
1616625611,25effa3b776e1364d4f986838bbf7016,Form,2,0,intro,NULL,EngN,yes
1616625611,25effa3b776e1364d4f986838bbf7016,Form,2,0,intro,NULL,bilingual,yes
1616625611,25effa3b776e1364d4f986838bbf7016,Form,2,0,intro,NULL,EngL,C1-C2
1616625611,25effa3b776e1364d4f986838bbf7016,Form,2,0,intro,NULL,AoA,5-10
1616625611,25effa3b776e1364d4f986838bbf7016,Form,2,0,intro,NULL,EngC,no
# The lines below this comment are in groups of 2.
# The formats of the lines in each of these groups are as follows:
#
# Line 1:
#     Col. 1: Time results were received.
#     Col. 2: MD5 hash of participant's IP address.
#     Col. 3: Controller name.
#     Col. 4: Item number.
#     Col. 5: Element number.
#     Col. 6: Type.
#     Col. 7: Group.
#     Col. 8: Sentence (or sentence MD5).
# Line 2:
#     Col. 1: Time results were received.
#     Col. 2: MD5 hash of participant's IP address.
#     Col. 3: Controller name.
#     Col. 4: Item number.
#     Col. 5: Element number.
#     Col. 6: Type.
#     Col. 7: Group.
#     Col. 8: Question (NULL if none).
#     Col. 9: Answer.
#     Col. 10: Whether or not answer was correct (NULL if N/A).
#     Col. 11: Time taken to answer.
1616625611,25effa3b776e1364d4f986838bbf7016,AcceptabilityJudgment,262,0,practice,NULL,<div style="width: 50em;"><!––  trial_type=practice item_number=f1 attested=5 ––><p style="text-align: center;" hidden>Did you get your computer already repaired?</p><center><img style="text-align:center;" src="https://ryanchausse.com/aubrie_masters_italian/images/conversation_pics/f1_filler.png" alt="Did you get your computer already repaired? No%2C I'm waiting to get my paycheck. "/></center></div>
1616625611,25effa3b776e1364d4f986838bbf7016,AcceptabilityJudgment,262,0,practice,NULL,NULL,5,NULL,9569
1616625611,25effa3b776e1364d4f986838bbf7016,AcceptabilityJudgment,270,0,practice,NULL,<div style="width: 50em;"><!––  trial_type=practice item_number=f9 attested=1 ––><p style="text-align: center;" hidden>Did Cindy leave?</p><center><img style="text-align:center;" src="https://ryanchausse.com/aubrie_masters_italian/images/conversation_pics/f9_filler.png" alt="Did Cindy leave? Yes! Has already left%2C Cindy. "/></center></div>
1616625611,25effa3b776e1364d4f986838bbf7016,AcceptabilityJudgment,270,0,practice,NULL,NULL,1,NULL,11170
1616625611,25effa3b776e1364d4f986838bbf7016,AcceptabilityJudgment,284,0,practice,NULL,<div style="width: 50em;"><!––  trial_type=practice item_number=f23 attested=7 ––><p style="text-align: center;" hidden>How’s your ankle doing?</p><center><img style="text-align:center;" src="https://ryanchausse.com/aubrie_masters_italian/images/conversation_pics/f23_filler.png" alt="How’s your ankle doing? It’s a lot better but I can’t run for at least a week… "/></center></div>
1616625611,25effa3b776e1364d4f986838bbf7016,AcceptabilityJudgment,284,0,practice,NULL,NULL,7,NULL,7493
1616625611,25effa3b776e1364d4f986838bbf7016,AcceptabilityJudgment,17,0,test,2,<div style="width: 50em;"><!––  trial_type=test item_number=2 list_number=5 pron=We cond=d cond_code=Embed.Null attested=N ––><p style="text-align: center;" hidden>How was your tennis match?</p><center><img style="text-align:center;" src="https://ryanchausse.com/aubrie_masters_italian/images/conversation_pics/2_5.png" alt="How was your tennis match? I’m sad to report that lost the match. "/></center></div>
1616625611,25effa3b776e1364d4f986838bbf7016,AcceptabilityJudgment,17,0,test,2,NULL,3,NULL,9919
1616625611,25effa3b776e1364d4f986838bbf7016,AcceptabilityJudgment,266,0,filler,NULL,<div style="width: 50em;"><!––  trial_type=filler item_number=f5 attested=4 ––><p style="text-align: center;" hidden>I don’t think the post office is open on Sundays%2C so you probably need to wait until Monday.</p><center><img style="text-align:center;" src="https://ryanchausse.com/aubrie_masters_italian/images/conversation_pics/f5_filler.png" alt="I don’t think the post office is open on Sundays%2C so you probably need to wait until Monday. Oh yeah%2C you have reason… "/></center></div>
1616625611,25effa3b776e1364d4f986838bbf7016,AcceptabilityJudgment,266,0,filler,NULL,NULL,3,NULL,9152
1616625611,25effa3b776e1364d4f986838bbf7016,AcceptabilityJudgment,191,0,test,24,<div style="width: 50em;"><!––  trial_type=test item_number=24 list_number=1 pron=They cond=b cond_code=Rt.Null attested=Y ––><p style="text-align: center;" hidden>Is it strange that I’m excited to meet your parents? They seem so cool!</p><center><img style="text-align:center;" src="https://ryanchausse.com/aubrie_masters_italian/images/conversation_pics/24_1.png" alt="Is it strange that I’m excited to meet your parents? They seem so cool! Are also excited to talk to you%2C especially because of your recent vacation in India. "/></center></div>
1616625611,25effa3b776e1364d4f986838bbf7016,AcceptabilityJudgment,191,0,test,24,NULL,4,NULL,17069
1616625611,25effa3b776e1364d4f986838bbf7016,AcceptabilityJudgment,271,0,filler,NULL,<div style="width: 50em;"><!––  trial_type=filler item_number=f10 attested=1 ––><p style="text-align: center;" hidden>Do you still have your Chemistry textbooks in your apartment?</p><center><img style="text-align:center;" src="https://ryanchausse.com/aubrie_masters_italian/images/conversation_pics/f10_filler.png" alt="Do you still have your Chemistry textbooks in your apartment? No%2C sorry. Those books%2C to my parents’ house%2C I brought. "/></center></div>
1616625611,25effa3b776e1364d4f986838bbf7016,AcceptabilityJudgment,271,0,filler,NULL,NULL,1,NULL,6927
1616625611,25effa3b776e1364d4f986838bbf7016,AcceptabilityJudgment,72,0,test,9,<div style="width: 50em;"><!––  trial_type=test item_number=9 list_number=3 pron=I cond=c cond_code=Embed.Ov attested=Y ––><p style="text-align: center;" hidden>I found a pink sock on the floor in the laundry room%2C is it yours?</p><center><img style="text-align:center;" src="https://ryanchausse.com/aubrie_masters_italian/images/conversation_pics/9_3.png" alt="I found a pink sock on the floor in the laundry room%2C is it yours? Probably! I think that I’ve been looking for that actually."/></center></div>
1616625611,25effa3b776e1364d4f986838bbf7016,AcceptabilityJudgment,72,0,test,9,NULL,7,NULL,15421
1616625611,25effa3b776e1364d4f986838bbf7016,AcceptabilityJudgment,289,0,filler,NULL,<div style="width: 50em;"><!––  trial_type=filler item_number=f28 attested=6 ––><p style="text-align: center;" hidden>You should not have told Hannah that you didn’t like her cake…she can't take criticism!</p><center><img style="text-align:center;" src="https://ryanchausse.com/aubrie_masters_italian/images/conversation_pics/f28_filler.png" alt="You should not have told Hannah that you didn’t like her cake…she can't take criticism! Before I didn’t know! I’ll be more careful in the future. "/></center></div>
1616625611,25effa3b776e1364d4f986838bbf7016,AcceptabilityJudgment,289,0,filler,NULL,NULL,5,NULL,8595
1616625611,25effa3b776e1364d4f986838bbf7016,AcceptabilityJudgment,8,0,test,1,<div style="width: 50em;"><!––  trial_type=test item_number=1 list_number=3 pron=I cond=c cond_code=Embed.Ov attested=Y ––><p style="text-align: center;" hidden>Did you hear the new Taylor Swift album?</p><center><img style="text-align:center;" src="https://ryanchausse.com/aubrie_masters_italian/images/conversation_pics/1_3.png" alt="Did you hear the new Taylor Swift album? Yeah! I’ll admit that I love listening to it while I’m at work."/></center></div>
1616625611,25effa3b776e1364d4f986838bbf7016,AcceptabilityJudgment,8,0,test,1,NULL,7,NULL,8721
1616625611,25effa3b776e1364d4f986838bbf7016,AcceptabilityJudgment,287,0,filler,NULL,<div style="width: 50em;"><!––  trial_type=filler item_number=f26 attested=6 ––><p style="text-align: center;" hidden>Where did I leave my bicycle last night?....</p><center><img style="text-align:center;" src="https://ryanchausse.com/aubrie_masters_italian/images/conversation_pics/f26_filler.png" alt="Where did I leave my bicycle last night?.... I have no idea…maybe at the park? or by the train station? "/></center></div>
1616625611,25effa3b776e1364d4f986838bbf7016,AcceptabilityJudgment,287,0,filler,NULL,NULL,6,NULL,18276
1616625611,25effa3b776e1364d4f986838bbf7016,AcceptabilityJudgment,99,0,test,12,<div style="width: 50em;"><!––  trial_type=test item_number=12 list_number=1 pron=They cond=f cond_code=Prepos.Null attested=Y ––><p style="text-align: center;" hidden>What did the Johnson sisters bring to the party?</p><center><img style="text-align:center;" src="https://ryanchausse.com/aubrie_masters_italian/images/conversation_pics/12_1.png" alt="What did the Johnson sisters bring to the party? As usual%2C brought wine and cheese. "/></center></div>
1616625611,25effa3b776e1364d4f986838bbf7016,AcceptabilityJudgment,99,0,test,12,NULL,5,NULL,8479
1616625611,25effa3b776e1364d4f986838bbf7016,AcceptabilityJudgment,274,0,filler,NULL,<div style="width: 50em;"><!––  trial_type=filler item_number=f13 attested=3 ––><p style="text-align: center;" hidden>Do you have potato chips?</p><center><img style="text-align:center;" src="https://ryanchausse.com/aubrie_masters_italian/images/conversation_pics/f13_filler.png" alt="Do you have potato chips? No%2C I haven’t bought every. "/></center></div>
1616625611,25effa3b776e1364d4f986838bbf7016,AcceptabilityJudgment,274,0,filler,NULL,NULL,3,NULL,6030
1616625611,25effa3b776e1364d4f986838bbf7016,AcceptabilityJudgment,35,0,test,4,<div style="width: 50em;"><!––  trial_type=test item_number=4 list_number=1 pron=They cond=f cond_code=Prepos.Null attested=Y ––><p style="text-align: center;" hidden>Ugh. I can’t get anything done when I’m at home. My parents can't leave me alone.</p><center><img style="text-align:center;" src="https://ryanchausse.com/aubrie_masters_italian/images/conversation_pics/4_1.png" alt="Ugh. I can’t get anything done when I’m at home. My parents can't leave me alone. Me too. Yesterday%2C wanted me to help them redecorate the living room!"/></center></div>
1616625611,25effa3b776e1364d4f986838bbf7016,AcceptabilityJudgment,35,0,test,4,NULL,4,NULL,8367
1616625611,25effa3b776e1364d4f986838bbf7016,AcceptabilityJudgment,281,0,filler,NULL,<div style="width: 50em;"><!––  trial_type=filler item_number=f20 attested=4 ––><p style="text-align: center;" hidden>I left my food processor next to your front door%2C enjoy!</p><center><img style="text-align:center;" src="https://ryanchausse.com/aubrie_masters_italian/images/conversation_pics/f20_filler.png" alt="I left my food processor next to your front door%2C enjoy! Thanks! Tomorrow I use it to make pumpkin soup. "/></center></div>
1616625611,25effa3b776e1364d4f986838bbf7016,AcceptabilityJudgment,281,0,filler,NULL,NULL,5,NULL,10028
1616625611,25effa3b776e1364d4f986838bbf7016,AcceptabilityJudgment,227,0,test,28,<div style="width: 50em;"><!––  trial_type=test item_number=28 list_number=1 pron=They cond=f cond_code=Prepos.Null attested=Y ––><p style="text-align: center;" hidden>Did you tell Daniel about Lisa and Matt’s divorce?</p><center><img style="text-align:center;" src="https://ryanchausse.com/aubrie_masters_italian/images/conversation_pics/28_1.png" alt="Did you tell Daniel about Lisa and Matt’s divorce? No%2C it’s their news. When they’re ready%2C can tell Daniel."/></center></div>
1616625611,25effa3b776e1364d4f986838bbf7016,AcceptabilityJudgment,227,0,test,28,NULL,4,NULL,12992
1616625611,25effa3b776e1364d4f986838bbf7016,AcceptabilityJudgment,264,0,filler,NULL,<div style="width: 50em;"><!––  trial_type=filler item_number=f3 attested=7 ––><p style="text-align: center;" hidden>Thank you for my new earrings. I haven’t taken them off!</p><center><img style="text-align:center;" src="https://ryanchausse.com/aubrie_masters_italian/images/conversation_pics/f3_filler.png" alt="Thank you for my new earrings. I haven’t taken them off! I’m happy to hear that. "/></center></div>
1616625611,25effa3b776e1364d4f986838bbf7016,AcceptabilityJudgment,264,0,filler,NULL,NULL,7,NULL,4764
1616625611,25effa3b776e1364d4f986838bbf7016,AcceptabilityJudgment,154,0,test,19,<div style="width: 50em;"><!––  trial_type=test item_number=19 list_number=7 pron=She cond=e cond_code=Prepos.Ov attested=Y ––><p style="text-align: center;" hidden>Did you hear a phone ringing in your apartment? Carl thinks that he left it there.</p><center><img style="text-align:center;" src="https://ryanchausse.com/aubrie_masters_italian/images/conversation_pics/19_7.png" alt="Did you hear a phone ringing in your apartment? Carl thinks that he left it there. While I was in the shower%2C I heard it. "/></center></div>
1616625611,25effa3b776e1364d4f986838bbf7016,AcceptabilityJudgment,154,0,test,19,NULL,5,NULL,7995
1616625611,25effa3b776e1364d4f986838bbf7016,AcceptabilityJudgment,282,0,filler,NULL,<div style="width: 50em;"><!––  trial_type=filler item_number=f21 attested=5 ––><p style="text-align: center;" hidden>Be careful on the way home%2C there are a lot of drunk drivers tonight.</p><center><img style="text-align:center;" src="https://ryanchausse.com/aubrie_masters_italian/images/conversation_pics/f21_filler.png" alt="Be careful on the way home%2C there are a lot of drunk drivers tonight. Don’t worry%2C I’ll text you when I will arrive home. "/></center></div>
1616625611,25effa3b776e1364d4f986838bbf7016,AcceptabilityJudgment,282,0,filler,NULL,NULL,6,NULL,6356
1616625611,25effa3b776e1364d4f986838bbf7016,AcceptabilityJudgment,26,0,test,3,<div style="width: 50em;"><!––  trial_type=test item_number=3 list_number=7 pron=She cond=e cond_code=Prepos.Ov attested=Y ––><p style="text-align: center;" hidden>New York City is my new favorite city%2C it’s so beautiful!</p><center><img style="text-align:center;" src="https://ryanchausse.com/aubrie_masters_italian/images/conversation_pics/3_7.png" alt="New York City is my new favorite city%2C it’s so beautiful! Nice! Carly has a request for you. Next time%2C she wants you to buy her an “I love NY” shirt"/></center></div>
1616625611,25effa3b776e1364d4f986838bbf7016,AcceptabilityJudgment,26,0,test,3,NULL,7,NULL,9404
1616625611,25effa3b776e1364d4f986838bbf7016,AcceptabilityJudgment,277,0,filler,NULL,<div style="width: 50em;"><!––  trial_type=filler item_number=f16 attested=3 ––><p style="text-align: center;" hidden>What are you doing tonight?</p><center><img style="text-align:center;" src="https://ryanchausse.com/aubrie_masters_italian/images/conversation_pics/f16_filler.png" alt="What are you doing tonight? I’m taking my sister and her three friends to the movies%2C so I’m responsible for four childrens…it’s a little scary! "/></center></div>
1616625611,25effa3b776e1364d4f986838bbf7016,AcceptabilityJudgment,277,0,filler,NULL,NULL,7,NULL,6017
1616625611,25effa3b776e1364d4f986838bbf7016,AcceptabilityJudgment,136,0,test,17,<div style="width: 50em;"><!––  trial_type=test item_number=17 list_number=3 pron=I cond=c cond_code=Embed.Ov attested=Y ––><p style="text-align: center;" hidden>I forgot that I paid the electric bill for last month. It was $42.50.</p><center><img style="text-align:center;" src="https://ryanchausse.com/aubrie_masters_italian/images/conversation_pics/17_3.png" alt="I forgot that I paid the electric bill for last month. It was $42.50. Okay%2C I’ll send you my half of it soon. "/></center></div>
1616625611,25effa3b776e1364d4f986838bbf7016,AcceptabilityJudgment,136,0,test,17,NULL,7,NULL,9036
1616625611,25effa3b776e1364d4f986838bbf7016,AcceptabilityJudgment,292,0,filler,NULL,<div style="width: 50em;"><!––  trial_type=filler item_number=f31 attested=2 ––><p style="text-align: center;" hidden>Did you get your keys back?</p><center><img style="text-align:center;" src="https://ryanchausse.com/aubrie_masters_italian/images/conversation_pics/f31_filler.png" alt="Did you get your keys back? Finally got its this morning! It’s been a stressful time… "/></center></div>
1616625611,25effa3b776e1364d4f986838bbf7016,AcceptabilityJudgment,292,0,filler,NULL,NULL,2,NULL,7282
1616625611,25effa3b776e1364d4f986838bbf7016,AcceptabilityJudgment,127,0,test,16,<div style="width: 50em;"><!––  trial_type=test item_number=16 list_number=1 pron=They cond=b cond_code=Rt.Null attested=Y ––><p style="text-align: center;" hidden>Is the Harrison family coming to the football game this weekend?</p><center><img style="text-align:center;" src="https://ryanchausse.com/aubrie_masters_italian/images/conversation_pics/16_1.png" alt="Is the Harrison family coming to the football game this weekend? No%2C they aren’t coming. Drove to the mountains to go skiing yesterday."/></center></div>
1616625611,25effa3b776e1364d4f986838bbf7016,AcceptabilityJudgment,127,0,test,16,NULL,3,NULL,7746
1616625611,25effa3b776e1364d4f986838bbf7016,AcceptabilityJudgment,293,0,filler,NULL,<div style="width: 50em;"><!––  trial_type=filler item_number=f32 attested=1 ––><p style="text-align: center;" hidden>Have you have some olives at your place?</p><center><img style="text-align:center;" src="https://ryanchausse.com/aubrie_masters_italian/images/conversation_pics/f32_filler.png" alt="Have you have some olives at your place? Yes%2C I have some. "/></center></div>
1616625611,25effa3b776e1364d4f986838bbf7016,AcceptabilityJudgment,293,0,filler,NULL,NULL,1,NULL,8826
1616625611,25effa3b776e1364d4f986838bbf7016,AcceptabilityJudgment,172,0,test,21,<div style="width: 50em;"><!––  trial_type=test item_number=21 list_number=3 pron=YouSg cond=g cond_code=Rt2.OV attested=Y ––><p style="text-align: center;" hidden>Do you think I did well on the exam yesterday?</p><center><img style="text-align:center;" src="https://ryanchausse.com/aubrie_masters_italian/images/conversation_pics/21_3.png" alt="Do you think I did well on the exam yesterday? You probably failed since you never went to class. "/></center></div>
1616625611,25effa3b776e1364d4f986838bbf7016,AcceptabilityJudgment,172,0,test,21,NULL,6,NULL,8665
1616625611,25effa3b776e1364d4f986838bbf7016,AcceptabilityJudgment,272,0,filler,NULL,<div style="width: 50em;"><!––  trial_type=filler item_number=f11 attested=2 ––><p style="text-align: center;" hidden>What time do you want to get dinner?</p><center><img style="text-align:center;" src="https://ryanchausse.com/aubrie_masters_italian/images/conversation_pics/f11_filler.png" alt="What time do you want to get dinner? For me%2C 7:30 it’s perfect. "/></center></div>
1616625611,25effa3b776e1364d4f986838bbf7016,AcceptabilityJudgment,272,0,filler,NULL,NULL,5,NULL,6927
1616625611,25effa3b776e1364d4f986838bbf7016,AcceptabilityJudgment,200,0,test,25,<div style="width: 50em;"><!––  trial_type=test item_number=25 list_number=3 pron=I cond=c cond_code=Embed.Ov attested=Y ––><p style="text-align: center;" hidden>I’m almost certain that I saw Kelly while I was getting coffee this morning. I think she was wearing a wedding ring…</p><center><img style="text-align:center;" src="https://ryanchausse.com/aubrie_masters_italian/images/conversation_pics/25_3.png" alt="I’m almost certain that I saw Kelly while I was getting coffee this morning. I think she was wearing a wedding ring… Wow. Well%2C I guess it’s time for me to move on. "/></center></div>
1616625611,25effa3b776e1364d4f986838bbf7016,AcceptabilityJudgment,200,0,test,25,NULL,7,NULL,12621
1616625611,25effa3b776e1364d4f986838bbf7016,AcceptabilityJudgment,278,0,filler,NULL,<div style="width: 50em;"><!––  trial_type=filler item_number=f17 attested=4 ––><p style="text-align: center;" hidden>I was thinking of buying Mom a box of candy for her birthday.</p><center><img style="text-align:center;" src="https://ryanchausse.com/aubrie_masters_italian/images/conversation_pics/f17_filler.png" alt="I was thinking of buying Mom a box of candy for her birthday. Good idea! She love chocolate. "/></center></div>
1616625611,25effa3b776e1364d4f986838bbf7016,AcceptabilityJudgment,278,0,filler,NULL,NULL,5,NULL,7516
1616625611,25effa3b776e1364d4f986838bbf7016,AcceptabilityJudgment,209,0,test,26,<div style="width: 50em;"><!––  trial_type=test item_number=26 list_number=5 pron=We cond=d cond_code=Embed.Null attested=N ––><p style="text-align: center;" hidden>Have you guys ever tried escargot? </p><center><img style="text-align:center;" src="https://ryanchausse.com/aubrie_masters_italian/images/conversation_pics/26_5.png" alt="Have you guys ever tried escargot?  Yeah. I’m glad that tried some while we were in France. Surprisingly%2C we loved them!"/></center></div>
1616625611,25effa3b776e1364d4f986838bbf7016,AcceptabilityJudgment,209,0,test,26,NULL,3,NULL,8062
1616625611,25effa3b776e1364d4f986838bbf7016,AcceptabilityJudgment,288,0,filler,NULL,<div style="width: 50em;"><!––  trial_type=filler item_number=f27 attested=6 ––><p style="text-align: center;" hidden>I’m nearby your apartment if you want to meet for a coffee.</p><center><img style="text-align:center;" src="https://ryanchausse.com/aubrie_masters_italian/images/conversation_pics/f27_filler.png" alt="I’m nearby your apartment if you want to meet for a coffee. Now%2C I can’t. But maybe next week! "/></center></div>
1616625611,25effa3b776e1364d4f986838bbf7016,AcceptabilityJudgment,288,0,filler,NULL,NULL,5,NULL,7598
1616625611,25effa3b776e1364d4f986838bbf7016,AcceptabilityJudgment,246,0,test,31,<div style="width: 50em;"><!––  trial_type=test item_number=31 list_number=7 pron=He cond=a cond_code=Rt.OV attested=Y ––><p style="text-align: center;" hidden>Are you doing anything fun with John for your birthday?</p><center><img style="text-align:center;" src="https://ryanchausse.com/aubrie_masters_italian/images/conversation_pics/31_7.png" alt="Are you doing anything fun with John for your birthday? Not really%2C he’s just making dinner for me. He promises to take me to Disneyworld next year though."/></center></div>
1616625611,25effa3b776e1364d4f986838bbf7016,AcceptabilityJudgment,246,0,test,31,NULL,5,NULL,13873
1616625611,25effa3b776e1364d4f986838bbf7016,AcceptabilityJudgment,280,0,filler,NULL,<div style="width: 50em;"><!––  trial_type=filler item_number=f19 attested=5 ––><p style="text-align: center;" hidden>I have an extra ticket for the concert on Friday if you want to come!</p><center><img style="text-align:center;" src="https://ryanchausse.com/aubrie_masters_italian/images/conversation_pics/f19_filler.png" alt="I have an extra ticket for the concert on Friday if you want to come! Thanks%2C but in fact I have plans already. "/></center></div>
1616625611,25effa3b776e1364d4f986838bbf7016,AcceptabilityJudgment,280,0,filler,NULL,NULL,4,NULL,6638
1616625611,25effa3b776e1364d4f986838bbf7016,AcceptabilityJudgment,236,0,test,29,<div style="width: 50em;"><!––  trial_type=test item_number=29 list_number=3 pron=YouSg cond=g cond_code=Rt2.OV attested=Y ––><p style="text-align: center;" hidden>I took your bicycle light by accident last night. I hope that’s okay. </p><center><img style="text-align:center;" src="https://ryanchausse.com/aubrie_masters_italian/images/conversation_pics/29_3.png" alt="I took your bicycle light by accident last night. I hope that’s okay.  You took my old light. I never use it anyway. You can keep it!"/></center></div>
1616625611,25effa3b776e1364d4f986838bbf7016,AcceptabilityJudgment,236,0,test,29,NULL,4,NULL,10475
1616625611,25effa3b776e1364d4f986838bbf7016,AcceptabilityJudgment,290,0,filler,NULL,<div style="width: 50em;"><!––  trial_type=filler item_number=f29 attested=1 ––><p style="text-align: center;" hidden>Can you add this note to the package?</p><center><img style="text-align:center;" src="https://ryanchausse.com/aubrie_masters_italian/images/conversation_pics/f29_filler.png" alt="Can you add this note to the package? Has already been sent%2C the package. "/></center></div>
1616625611,25effa3b776e1364d4f986838bbf7016,AcceptabilityJudgment,290,0,filler,NULL,NULL,4,NULL,4986
1616625611,25effa3b776e1364d4f986838bbf7016,AcceptabilityJudgment,118,0,test,15,<div style="width: 50em;"><!––  trial_type=test item_number=15 list_number=7 pron=He cond=a cond_code=Rt.OV attested=Y ––><p style="text-align: center;" hidden>How did your son’s show go yesterday?</p><center><img style="text-align:center;" src="https://ryanchausse.com/aubrie_masters_italian/images/conversation_pics/15_7.png" alt="How did your son’s show go yesterday? It went well! He posted a video of it on Youtube if you want to watch it. I’ll ask him for the link."/></center></div>
1616625611,25effa3b776e1364d4f986838bbf7016,AcceptabilityJudgment,118,0,test,15,NULL,6,NULL,28644
1616625611,25effa3b776e1364d4f986838bbf7016,AcceptabilityJudgment,296,0,filler,NULL,<div style="width: 50em;"><!––  trial_type=filler item_number=f35 attested=7 ––><p style="text-align: center;" hidden>Merry Christmas! I’m very thankful to have a friend like you!</p><center><img style="text-align:center;" src="https://ryanchausse.com/aubrie_masters_italian/images/conversation_pics/f35_filler.png" alt="Merry Christmas! I’m very thankful to have a friend like you! Aw%2C thanks. Merry Christmas to you%2C too! "/></center></div>
1616625611,25effa3b776e1364d4f986838bbf7016,AcceptabilityJudgment,296,0,filler,NULL,NULL,7,NULL,6279
1616625611,25effa3b776e1364d4f986838bbf7016,AcceptabilityJudgment,218,0,test,27,<div style="width: 50em;"><!––  trial_type=test item_number=27 list_number=7 pron=She cond=e cond_code=Prepos.Ov attested=Y ––><p style="text-align: center;" hidden>Did Carrie give the dog some food?</p><center><img style="text-align:center;" src="https://ryanchausse.com/aubrie_masters_italian/images/conversation_pics/27_7.png" alt="Did Carrie give the dog some food? This morning she fed him. He’ll be fine."/></center></div>
1616625611,25effa3b776e1364d4f986838bbf7016,AcceptabilityJudgment,218,0,test,27,NULL,3,NULL,5187
1616625611,25effa3b776e1364d4f986838bbf7016,AcceptabilityJudgment,285,0,filler,NULL,<div style="width: 50em;"><!––  trial_type=filler item_number=f24 attested=7 ––><p style="text-align: center;" hidden>Did you take my basketball home after the game last week?</p><center><img style="text-align:center;" src="https://ryanchausse.com/aubrie_masters_italian/images/conversation_pics/f24_filler.png" alt="Did you take my basketball home after the game last week? Yes! Sorry I forgot to tell you.  "/></center></div>
1616625611,25effa3b776e1364d4f986838bbf7016,AcceptabilityJudgment,285,0,filler,NULL,NULL,5,NULL,5686
1616625611,25effa3b776e1364d4f986838bbf7016,AcceptabilityJudgment,108,0,test,13,<div style="width: 50em;"><!––  trial_type=test item_number=13 list_number=3 pron=YouSg cond=g cond_code=Rt2.OV attested=Y ––><p style="text-align: center;" hidden>You bought too many souvenirs. You're going to regret it when you have to put them all in your bag.</p><center><img style="text-align:center;" src="https://ryanchausse.com/aubrie_masters_italian/images/conversation_pics/13_3.png" alt="You bought too many souvenirs. You're going to regret it when you have to put them all in your bag. I wanted to buy something for everyone! "/></center></div>
1616625611,25effa3b776e1364d4f986838bbf7016,AcceptabilityJudgment,108,0,test,13,NULL,7,NULL,10294
1616625611,25effa3b776e1364d4f986838bbf7016,AcceptabilityJudgment,294,0,filler,NULL,<div style="width: 50em;"><!––  trial_type=filler item_number=f33 attested=4 ––><p style="text-align: center;" hidden>Jesse said me to bring a hat for you%2C which one do you want?</p><center><img style="text-align:center;" src="https://ryanchausse.com/aubrie_masters_italian/images/conversation_pics/f33_filler.png" alt="Jesse said me to bring a hat for you%2C which one do you want? Bring the black sunhat please! "/></center></div>
1616625611,25effa3b776e1364d4f986838bbf7016,AcceptabilityJudgment,294,0,filler,NULL,NULL,2,NULL,7529
1616625611,25effa3b776e1364d4f986838bbf7016,AcceptabilityJudgment,44,0,test,5,<div style="width: 50em;"><!––  trial_type=test item_number=5 list_number=3 pron=YouSg cond=g cond_code=Rt2.OV attested=Y ––><p style="text-align: center;" hidden>So%2C you can’t go on vacation anymore and you have to pick up dog poop. You woke up to the sound of your dog eating your couch this morning. Are you sure you made the right choice?</p><center><img style="text-align:center;" src="https://ryanchausse.com/aubrie_masters_italian/images/conversation_pics/5_3.png" alt="So%2C you can’t go on vacation anymore and you have to pick up dog poop. You woke up to the sound of your dog eating your couch this morning. Are you sure you made the right choice? This dog is destroying my life. "/></center></div>
1616625611,25effa3b776e1364d4f986838bbf7016,AcceptabilityJudgment,44,0,test,5,NULL,6,NULL,11711
1616625611,25effa3b776e1364d4f986838bbf7016,AcceptabilityJudgment,269,0,filler,NULL,<div style="width: 50em;"><!––  trial_type=filler item_number=f8 attested=4 ––><p style="text-align: center;" hidden>Does your friend eat the meat?</p><center><img style="text-align:center;" src="https://ryanchausse.com/aubrie_masters_italian/images/conversation_pics/f8_filler.png" alt="Does your friend eat the meat? No%2C he’s a vegetarian. But he’ll bring his own food for the BBQ%2C don’t worry. "/></center></div>
1616625611,25effa3b776e1364d4f986838bbf7016,AcceptabilityJudgment,269,0,filler,NULL,NULL,5,NULL,8357
1616625611,25effa3b776e1364d4f986838bbf7016,AcceptabilityJudgment,245,0,test,30,<div style="width: 50em;"><!––  trial_type=test item_number=30 list_number=5 pron=YouPl cond=h cond_code=Rt2.Null attested=N ––><p style="text-align: center;" hidden>Did you read the report?</p><center><img style="text-align:center;" src="https://ryanchausse.com/aubrie_masters_italian/images/conversation_pics/30_5.png" alt="Did you read the report? Yeah. You can reduce it by about two paragraphs.  Don’t need to include so much detail in my opinion."/></center></div>
1616625611,25effa3b776e1364d4f986838bbf7016,AcceptabilityJudgment,245,0,test,30,NULL,5,NULL,24940
1616625611,25effa3b776e1364d4f986838bbf7016,AcceptabilityJudgment,263,0,filler,NULL,<div style="width: 50em;"><!––  trial_type=filler item_number=f2 attested=3 ––><p style="text-align: center;" hidden>That photo looks amazing! Where did you take it?</p><center><img style="text-align:center;" src="https://ryanchausse.com/aubrie_masters_italian/images/conversation_pics/f2_filler.png" alt="That photo looks amazing! Where did you take it? I’m escaped in Catalina Island. "/></center></div>
1616625611,25effa3b776e1364d4f986838bbf7016,AcceptabilityJudgment,263,0,filler,NULL,NULL,2,NULL,5708
1616625611,25effa3b776e1364d4f986838bbf7016,AcceptabilityJudgment,90,0,test,11,<div style="width: 50em;"><!––  trial_type=test item_number=11 list_number=7 pron=She cond=e cond_code=Prepos.Ov attested=Y ––><p style="text-align: center;" hidden>How many people did Jasmine invite to the game night?</p><center><img style="text-align:center;" src="https://ryanchausse.com/aubrie_masters_italian/images/conversation_pics/11_7.png" alt="How many people did Jasmine invite to the game night? If I remember correctly%2C she said about 5. "/></center></div>
1616625611,25effa3b776e1364d4f986838bbf7016,AcceptabilityJudgment,90,0,test,11,NULL,5,NULL,5939
1616625611,25effa3b776e1364d4f986838bbf7016,AcceptabilityJudgment,268,0,filler,NULL,<div style="width: 50em;"><!––  trial_type=filler item_number=f7 attested=5 ––><p style="text-align: center;" hidden>Do you want to go to the opera on Saturday?</p><center><img style="text-align:center;" src="https://ryanchausse.com/aubrie_masters_italian/images/conversation_pics/f7_filler.png" alt="Do you want to go to the opera on Saturday? Yeah! I think it would be really funny! "/></center></div>
1616625611,25effa3b776e1364d4f986838bbf7016,AcceptabilityJudgment,268,0,filler,NULL,NULL,5,NULL,7583
1616625611,25effa3b776e1364d4f986838bbf7016,AcceptabilityJudgment,145,0,test,18,<div style="width: 50em;"><!––  trial_type=test item_number=18 list_number=5 pron=We cond=d cond_code=Embed.Null attested=N ––><p style="text-align: center;" hidden>Stella and I are leaving the city now. I think that should arrive around 10pm if there’s no traffic.</p><center><img style="text-align:center;" src="https://ryanchausse.com/aubrie_masters_italian/images/conversation_pics/18_5.png" alt="Stella and I are leaving the city now. I think that should arrive around 10pm if there’s no traffic. Sounds good. "/></center></div>
1616625611,25effa3b776e1364d4f986838bbf7016,AcceptabilityJudgment,145,0,test,18,NULL,4,NULL,6766
1616625611,25effa3b776e1364d4f986838bbf7016,AcceptabilityJudgment,273,0,filler,NULL,<div style="width: 50em;"><!––  trial_type=filler item_number=f12 attested=2 ––><p style="text-align: center;" hidden>Where did you say that you got those brown leather boots from?</p><center><img style="text-align:center;" src="https://ryanchausse.com/aubrie_masters_italian/images/conversation_pics/f12_filler.png" alt="Where did you say that you got those brown leather boots from? I buyed them at Zara. "/></center></div>
1616625611,25effa3b776e1364d4f986838bbf7016,AcceptabilityJudgment,273,0,filler,NULL,NULL,4,NULL,14326
1616625611,25effa3b776e1364d4f986838bbf7016,AcceptabilityJudgment,54,0,test,7,<div style="width: 50em;"><!––  trial_type=test item_number=7 list_number=7 pron=He cond=a cond_code=Rt.OV attested=Y ––><p style="text-align: center;" hidden>Can your dad drive us to the mall on Sunday?</p><center><img style="text-align:center;" src="https://ryanchausse.com/aubrie_masters_italian/images/conversation_pics/7_7.png" alt="Can your dad drive us to the mall on Sunday? He can’t on Sunday. Maybe on Saturday he could%2C though."/></center></div>
1616625611,25effa3b776e1364d4f986838bbf7016,AcceptabilityJudgment,54,0,test,7,NULL,4,NULL,11413
1616625611,25effa3b776e1364d4f986838bbf7016,AcceptabilityJudgment,276,0,filler,NULL,<div style="width: 50em;"><!––  trial_type=filler item_number=f15 attested=2 ––><p style="text-align: center;" hidden>Did you enjoy seeing your cousins at the family reunion?</p><center><img style="text-align:center;" src="https://ryanchausse.com/aubrie_masters_italian/images/conversation_pics/f15_filler.png" alt="Did you enjoy seeing your cousins at the family reunion? Yes%2C I had so much fun with they! "/></center></div>
1616625611,25effa3b776e1364d4f986838bbf7016,AcceptabilityJudgment,276,0,filler,NULL,NULL,3,NULL,6493
1616625611,25effa3b776e1364d4f986838bbf7016,AcceptabilityJudgment,182,0,test,23,<div style="width: 50em;"><!––  trial_type=test item_number=23 list_number=7 pron=He cond=a cond_code=Rt.OV attested=Y ––><p style="text-align: center;" hidden>Nathan wants to know if you are bringing your tools to work today.</p><center><img style="text-align:center;" src="https://ryanchausse.com/aubrie_masters_italian/images/conversation_pics/23_7.png" alt="Nathan wants to know if you are bringing your tools to work today. Yes…but he needs to buy his own. He broke something last time."/></center></div>
1616625611,25effa3b776e1364d4f986838bbf7016,AcceptabilityJudgment,182,0,test,23,NULL,6,NULL,17603
1616625611,25effa3b776e1364d4f986838bbf7016,AcceptabilityJudgment,286,0,filler,NULL,<div style="width: 50em;"><!––  trial_type=filler item_number=f25 attested=6 ––><p style="text-align: center;" hidden>I’m never drinking again.</p><center><img style="text-align:center;" src="https://ryanchausse.com/aubrie_masters_italian/images/conversation_pics/f25_filler.png" alt="I’m never drinking again. bahahahaha lmao you must be so hungover! "/></center></div>
1616625611,25effa3b776e1364d4f986838bbf7016,AcceptabilityJudgment,286,0,filler,NULL,NULL,7,NULL,5294
1616625611,25effa3b776e1364d4f986838bbf7016,AcceptabilityJudgment,63,0,test,8,<div style="width: 50em;"><!––  trial_type=test item_number=8 list_number=1 pron=They cond=b cond_code=Rt.Null attested=Y ––><p style="text-align: center;" hidden>How are the kids?</p><center><img style="text-align:center;" src="https://ryanchausse.com/aubrie_masters_italian/images/conversation_pics/8_1.png" alt="How are the kids? Great! We’re at the beach. Are building sandcastles%2C of course. I’ll send you a photo."/></center></div>
1616625611,25effa3b776e1364d4f986838bbf7016,AcceptabilityJudgment,63,0,test,8,NULL,4,NULL,6502
1616625611,25effa3b776e1364d4f986838bbf7016,AcceptabilityJudgment,265,0,filler,NULL,<div style="width: 50em;"><!––  trial_type=filler item_number=f4 attested=3 ––><p style="text-align: center;" hidden>Do you think that Tommy suspects that we’re planning a surprise party for him?</p><center><img style="text-align:center;" src="https://ryanchausse.com/aubrie_masters_italian/images/conversation_pics/f4_filler.png" alt="Do you think that Tommy suspects that we’re planning a surprise party for him? No%2C he hasn’t caught up! "/></center></div>
1616625611,25effa3b776e1364d4f986838bbf7016,AcceptabilityJudgment,265,0,filler,NULL,NULL,5,NULL,5585
1616625611,25effa3b776e1364d4f986838bbf7016,AcceptabilityJudgment,163,0,test,20,<div style="width: 50em;"><!––  trial_type=test item_number=20 list_number=1 pron=They cond=f cond_code=Prepos.Null attested=Y ––><p style="text-align: center;" hidden>Fluffy misses Spot! He’s sitting by the window waiting for you guys to return. </p><center><img style="text-align:center;" src="https://ryanchausse.com/aubrie_masters_italian/images/conversation_pics/20_1.png" alt="Fluffy misses Spot! He’s sitting by the window waiting for you guys to return.  Awww!  Too cute%2C love each other!"/></center></div>
1616625611,25effa3b776e1364d4f986838bbf7016,AcceptabilityJudgment,163,0,test,20,NULL,5,NULL,9826
1616625611,25effa3b776e1364d4f986838bbf7016,AcceptabilityJudgment,267,0,filler,NULL,<div style="width: 50em;"><!––  trial_type=filler item_number=f6 attested=2 ––><p style="text-align: center;" hidden>I don’t think I’ll come back to Florida for Christmas this year. I always get into a fight with my dad…and I don’t have much money right now…nothing%2C I just wanted to tell you that I won’t come to your Christmas Party.</p><center><img style="text-align:center;" src="https://ryanchausse.com/aubrie_masters_italian/images/conversation_pics/f6_filler.png" alt="I don’t think I’ll come back to Florida for Christmas this year. I always get into a fight with my dad…and I don’t have much money right now…nothing%2C I just wanted to tell you that I won’t come to your Christmas Party. We will miss you at the party%2C but I understand. "/></center></div>
1616625611,25effa3b776e1364d4f986838bbf7016,AcceptabilityJudgment,267,0,filler,NULL,NULL,5,NULL,16502
1616625611,25effa3b776e1364d4f986838bbf7016,AcceptabilityJudgment,53,0,test,6,<div style="width: 50em;"><!––  trial_type=test item_number=6 list_number=5 pron=YouPl cond=h cond_code=Rt2.Null attested=N ––><p style="text-align: center;" hidden>How was your Friday? Had a nice dinner. Did you guys see a movie?</p><center><img style="text-align:center;" src="https://ryanchausse.com/aubrie_masters_italian/images/conversation_pics/6_5.png" alt="How was your Friday? Had a nice dinner. Did you guys see a movie? Yeah%2C after dinner we saw a movie. I don’t remember what happened afterwards."/></center></div>
1616625611,25effa3b776e1364d4f986838bbf7016,AcceptabilityJudgment,53,0,test,6,NULL,2,NULL,7173
1616625611,25effa3b776e1364d4f986838bbf7016,AcceptabilityJudgment,275,0,filler,NULL,<div style="width: 50em;"><!––  trial_type=filler item_number=f14 attested=5 ––><p style="text-align: center;" hidden>I can’t remember exactly who came to the party…</p><center><img style="text-align:center;" src="https://ryanchausse.com/aubrie_masters_italian/images/conversation_pics/f14_filler.png" alt="I can’t remember exactly who came to the party… Me neither. I just remember that a lot of people was there. "/></center></div>
1616625611,25effa3b776e1364d4f986838bbf7016,AcceptabilityJudgment,275,0,filler,NULL,NULL,3,NULL,6726
1616625611,25effa3b776e1364d4f986838bbf7016,AcceptabilityJudgment,81,0,test,10,<div style="width: 50em;"><!––  trial_type=test item_number=10 list_number=5 pron=We cond=d cond_code=Embed.Null attested=N ––><p style="text-align: center;" hidden>You and Gina brought your beach towels%2C right?</p><center><img style="text-align:center;" src="https://ryanchausse.com/aubrie_masters_italian/images/conversation_pics/10_5.png" alt="You and Gina brought your beach towels%2C right? I don’t think that brought any with us%2C sorry. "/></center></div>
1616625611,25effa3b776e1364d4f986838bbf7016,AcceptabilityJudgment,81,0,test,10,NULL,2,NULL,7455
1616625611,25effa3b776e1364d4f986838bbf7016,AcceptabilityJudgment,283,0,filler,NULL,<div style="width: 50em;"><!––  trial_type=filler item_number=f22 attested=7 ––><p style="text-align: center;" hidden>I saw on the weather there’s a big storm coming. Is it going to rain when you’re in Oregon??</p><center><img style="text-align:center;" src="https://ryanchausse.com/aubrie_masters_italian/images/conversation_pics/f22_filler.png" alt="I saw on the weather there’s a big storm coming. Is it going to rain when you’re in Oregon?? Yes. It’s not going to be very fun camping in the rain… "/></center></div>
1616625611,25effa3b776e1364d4f986838bbf7016,AcceptabilityJudgment,283,0,filler,NULL,NULL,4,NULL,14046
1616625611,25effa3b776e1364d4f986838bbf7016,AcceptabilityJudgment,117,0,test,14,<div style="width: 50em;"><!––  trial_type=test item_number=14 list_number=5 pron=YouPl cond=h cond_code=Rt2.Null attested=N ––><p style="text-align: center;" hidden>Jane and I are leaving now for the meeting. How long does it take to bike there? </p><center><img style="text-align:center;" src="https://ryanchausse.com/aubrie_masters_italian/images/conversation_pics/14_5.png" alt="Jane and I are leaving now for the meeting. How long does it take to bike there?  It will probably take you guys about 30 minutes.   Will be about 20 minutes late according to Google Maps."/></center></div>
1616625611,25effa3b776e1364d4f986838bbf7016,AcceptabilityJudgment,117,0,test,14,NULL,2,NULL,10564
1616625611,25effa3b776e1364d4f986838bbf7016,AcceptabilityJudgment,291,0,filler,NULL,<div style="width: 50em;"><!––  trial_type=filler item_number=f30 attested=1 ––><p style="text-align: center;" hidden>Have you seen my backpack?</p><center><img style="text-align:center;" src="https://ryanchausse.com/aubrie_masters_italian/images/conversation_pics/f30_filler.png" alt="Have you seen my backpack? I think he’s in the closet under the skiing equipment… "/></center></div>
1616625611,25effa3b776e1364d4f986838bbf7016,AcceptabilityJudgment,291,0,filler,NULL,NULL,4,NULL,6657
1616625611,25effa3b776e1364d4f986838bbf7016,AcceptabilityJudgment,255,0,test,32,<div style="width: 50em;"><!––  trial_type=test item_number=32 list_number=1 pron=They cond=b cond_code=Rt.Null attested=Y ––><p style="text-align: center;" hidden>Do you know where my roommates are?</p><center><img style="text-align:center;" src="https://ryanchausse.com/aubrie_masters_italian/images/conversation_pics/32_1.png" alt="Do you know where my roommates are? I’m not sure…they’ve been gone all day. Were walking towards the beach when I saw them."/></center></div>
1616625611,25effa3b776e1364d4f986838bbf7016,AcceptabilityJudgment,255,0,test,32,NULL,5,NULL,11426
1616625611,25effa3b776e1364d4f986838bbf7016,AcceptabilityJudgment,279,0,filler,NULL,<div style="width: 50em;"><!––  trial_type=filler item_number=f18 attested=3 ––><p style="text-align: center;" hidden>Panera makes the best ciabatta bread ever.</p><center><img style="text-align:center;" src="https://ryanchausse.com/aubrie_masters_italian/images/conversation_pics/f18_filler.png" alt="Panera makes the best ciabatta bread ever. Yea%2C I’ve tasted their%2C but I prefer to bake my own bread. "/></center></div>
1616625611,25effa3b776e1364d4f986838bbf7016,AcceptabilityJudgment,279,0,filler,NULL,NULL,2,NULL,7005
1616625611,25effa3b776e1364d4f986838bbf7016,AcceptabilityJudgment,181,0,test,22,<div style="width: 50em;"><!––  trial_type=test item_number=22 list_number=5 pron=YouPl cond=h cond_code=Rt2.Null attested=N ––><p style="text-align: center;" hidden>Hey Iris%2C we heard that you’re making that delicious Chinese soup. We’re going to the store later tonight. Do you need any spices?</p><center><img style="text-align:center;" src="https://ryanchausse.com/aubrie_masters_italian/images/conversation_pics/22_5.png" alt="Hey Iris%2C we heard that you’re making that delicious Chinese soup. We’re going to the store later tonight. Do you need any spices?  Going to the store nearby your house%2C but that store doesn’t have the right spices. Thanks anyway."/></center></div>
1616625611,25effa3b776e1364d4f986838bbf7016,AcceptabilityJudgment,181,0,test,22,NULL,2,NULL,15273
1616625611,25effa3b776e1364d4f986838bbf7016,AcceptabilityJudgment,295,0,filler,NULL,<div style="width: 50em;"><!––  trial_type=filler item_number=f34 attested=6 ––><p style="text-align: center;" hidden>Will you be at the office today?</p><center><img style="text-align:center;" src="https://ryanchausse.com/aubrie_masters_italian/images/conversation_pics/f34_filler.png" alt="Will you be at the office today? Yes%2C if you want to pass by later it will be great. "/></center></div>
1616625611,25effa3b776e1364d4f986838bbf7016,AcceptabilityJudgment,295,0,filler,NULL,NULL,6,NULL,6664
# Columns below this comment are as follows:
# 1. Time results were received.
# 2. MD5 hash of participant's IP address.
# 3. Controller name.
# 4. Item number.
# 5. Element number.
# 6. Type.
# 7. Group.
# 8. Field name.
# 9. Field value.
1616625611,25effa3b776e1364d4f986838bbf7016,Form,5,0,feedback,NULL,fdbk_problems_difficulties,nessuna difficoltà
1616625611,25effa3b776e1364d4f986838bbf7016,Form,5,0,feedback,NULL,fdbk_experiment_about,quanto l'essere madrelingua italiano/a possa influire sulla percezione che si ha dell'inglese%2C in questo caso della naturalezza o meno di una conversazione
1616625611,25effa3b776e1364d4f986838bbf7016,Form,5,0,feedback,NULL,fdbk_other_notes_questions,
1616625611,25effa3b776e1364d4f986838bbf7016,Form,5,0,feedback,NULL,above_ability,no
#
# Results on Wednesday March 24 2021 23:01:22 UTC.
# USER AGENT: Mozilla/5.0 (Windows NT 10.0; Win64; x64) AppleWebKit/537.36 (KHTML, like Gecko) Chrome/89.0.4389.90 Safari/537.36
# Design number was non-random = 3
#
# Columns below this comment are as follows:
# 1. Time results were received.
# 2. MD5 hash of participant's IP address.
# 3. Controller name.
# 4. Item number.
# 5. Element number.
# 6. Type.
# 7. Group.
# 8. Field name.
# 9. Field value.
1616626883,8cd3042e118345bbd1b3c1ad219ef3f7,Form,2,0,intro,NULL,name,Duccio Bravi
1616626883,8cd3042e118345bbd1b3c1ad219ef3f7,Form,2,0,intro,NULL,age,26
1616626883,8cd3042e118345bbd1b3c1ad219ef3f7,Form,2,0,intro,NULL,bilingual_languages,English and a little bit of Spanish
1616626883,8cd3042e118345bbd1b3c1ad219ef3f7,Form,2,0,intro,NULL,EngHist,I have not an official certification yet but I had had in the past many pregressive experiences and had been studying since I was in primary school%2C both academically and bymyself.
1616626883,8cd3042e118345bbd1b3c1ad219ef3f7,Form,2,0,intro,NULL,EngAct,yes
1616626883,8cd3042e118345bbd1b3c1ad219ef3f7,Form,2,0,intro,NULL,EngAct,no
1616626883,8cd3042e118345bbd1b3c1ad219ef3f7,Form,2,0,intro,NULL,EngAct,no
1616626883,8cd3042e118345bbd1b3c1ad219ef3f7,Form,2,0,intro,NULL,EngAct,yes
1616626883,8cd3042e118345bbd1b3c1ad219ef3f7,Form,2,0,intro,NULL,EngAct,yes
1616626883,8cd3042e118345bbd1b3c1ad219ef3f7,Form,2,0,intro,NULL,EngAct,yes
1616626883,8cd3042e118345bbd1b3c1ad219ef3f7,Form,2,0,intro,NULL,EngAct,yes
1616626883,8cd3042e118345bbd1b3c1ad219ef3f7,Form,2,0,intro,NULL,EngAct,yes
1616626883,8cd3042e118345bbd1b3c1ad219ef3f7,Form,2,0,intro,NULL,EngAct,yes
1616626883,8cd3042e118345bbd1b3c1ad219ef3f7,Form,2,0,intro,NULL,EngAct,no
1616626883,8cd3042e118345bbd1b3c1ad219ef3f7,Form,2,0,intro,NULL,consent,yes
1616626883,8cd3042e118345bbd1b3c1ad219ef3f7,Form,2,0,intro,NULL,EngN,yes
1616626883,8cd3042e118345bbd1b3c1ad219ef3f7,Form,2,0,intro,NULL,bilingual,yes
1616626883,8cd3042e118345bbd1b3c1ad219ef3f7,Form,2,0,intro,NULL,EngL,C1-C2
1616626883,8cd3042e118345bbd1b3c1ad219ef3f7,Form,2,0,intro,NULL,AoA,0-4
1616626883,8cd3042e118345bbd1b3c1ad219ef3f7,Form,2,0,intro,NULL,EngC,no
# The lines below this comment are in groups of 2.
# The formats of the lines in each of these groups are as follows:
#
# Line 1:
#     Col. 1: Time results were received.
#     Col. 2: MD5 hash of participant's IP address.
#     Col. 3: Controller name.
#     Col. 4: Item number.
#     Col. 5: Element number.
#     Col. 6: Type.
#     Col. 7: Group.
#     Col. 8: Sentence (or sentence MD5).
# Line 2:
#     Col. 1: Time results were received.
#     Col. 2: MD5 hash of participant's IP address.
#     Col. 3: Controller name.
#     Col. 4: Item number.
#     Col. 5: Element number.
#     Col. 6: Type.
#     Col. 7: Group.
#     Col. 8: Question (NULL if none).
#     Col. 9: Answer.
#     Col. 10: Whether or not answer was correct (NULL if N/A).
#     Col. 11: Time taken to answer.
1616626883,8cd3042e118345bbd1b3c1ad219ef3f7,AcceptabilityJudgment,262,0,practice,NULL,<div style="width: 50em;"><!––  trial_type=practice item_number=f1 attested=5 ––><p style="text-align: center;" hidden>Did you get your computer already repaired?</p><center><img style="text-align:center;" src="https://ryanchausse.com/aubrie_masters_italian/images/conversation_pics/f1_filler.png" alt="Did you get your computer already repaired? No%2C I'm waiting to get my paycheck. "/></center></div>
1616626883,8cd3042e118345bbd1b3c1ad219ef3f7,AcceptabilityJudgment,262,0,practice,NULL,NULL,6,NULL,15912
1616626883,8cd3042e118345bbd1b3c1ad219ef3f7,AcceptabilityJudgment,270,0,practice,NULL,<div style="width: 50em;"><!––  trial_type=practice item_number=f9 attested=1 ––><p style="text-align: center;" hidden>Did Cindy leave?</p><center><img style="text-align:center;" src="https://ryanchausse.com/aubrie_masters_italian/images/conversation_pics/f9_filler.png" alt="Did Cindy leave? Yes! Has already left%2C Cindy. "/></center></div>
1616626883,8cd3042e118345bbd1b3c1ad219ef3f7,AcceptabilityJudgment,270,0,practice,NULL,NULL,1,NULL,6461
1616626883,8cd3042e118345bbd1b3c1ad219ef3f7,AcceptabilityJudgment,284,0,practice,NULL,<div style="width: 50em;"><!––  trial_type=practice item_number=f23 attested=7 ––><p style="text-align: center;" hidden>How’s your ankle doing?</p><center><img style="text-align:center;" src="https://ryanchausse.com/aubrie_masters_italian/images/conversation_pics/f23_filler.png" alt="How’s your ankle doing? It’s a lot better but I can’t run for at least a week… "/></center></div>
1616626883,8cd3042e118345bbd1b3c1ad219ef3f7,AcceptabilityJudgment,284,0,practice,NULL,NULL,7,NULL,7641
1616626883,8cd3042e118345bbd1b3c1ad219ef3f7,AcceptabilityJudgment,238,0,test,30,<div style="width: 50em;"><!––  trial_type=test item_number=30 list_number=6 pron=We cond=a cond_code=Rt.OV attested=Y ––><p style="text-align: center;" hidden>Did you read the report? </p><center><img style="text-align:center;" src="https://ryanchausse.com/aubrie_masters_italian/images/conversation_pics/30_6.png" alt="Did you read the report?  Yeah. We can reduce it by about two paragraphs. We don’t need to include so much detail in my opinion."/></center></div>
1616626883,8cd3042e118345bbd1b3c1ad219ef3f7,AcceptabilityJudgment,238,0,test,30,NULL,6,NULL,16864
1616626883,8cd3042e118345bbd1b3c1ad219ef3f7,AcceptabilityJudgment,273,0,filler,NULL,<div style="width: 50em;"><!––  trial_type=filler item_number=f12 attested=2 ––><p style="text-align: center;" hidden>Where did you say that you got those brown leather boots from?</p><center><img style="text-align:center;" src="https://ryanchausse.com/aubrie_masters_italian/images/conversation_pics/f12_filler.png" alt="Where did you say that you got those brown leather boots from? I buyed them at Zara. "/></center></div>
1616626883,8cd3042e118345bbd1b3c1ad219ef3f7,AcceptabilityJudgment,273,0,filler,NULL,NULL,4,NULL,11433
1616626883,8cd3042e118345bbd1b3c1ad219ef3f7,AcceptabilityJudgment,64,0,test,8,<div style="width: 50em;"><!––  trial_type=test item_number=8 list_number=2 pron=They cond=c cond_code=Embed.Ov attested=Y ––><p style="text-align: center;" hidden>How are the kids?</p><center><img style="text-align:center;" src="https://ryanchausse.com/aubrie_masters_italian/images/conversation_pics/8_2.png" alt="How are the kids? Great! We’re at the beach%2C which means that they are building sandcastles of course. I’ll send you a photo."/></center></div>
1616626883,8cd3042e118345bbd1b3c1ad219ef3f7,AcceptabilityJudgment,64,0,test,8,NULL,7,NULL,8708
1616626883,8cd3042e118345bbd1b3c1ad219ef3f7,AcceptabilityJudgment,290,0,filler,NULL,<div style="width: 50em;"><!––  trial_type=filler item_number=f29 attested=1 ––><p style="text-align: center;" hidden>Can you add this note to the package?</p><center><img style="text-align:center;" src="https://ryanchausse.com/aubrie_masters_italian/images/conversation_pics/f29_filler.png" alt="Can you add this note to the package? Has already been sent%2C the package. "/></center></div>
1616626883,8cd3042e118345bbd1b3c1ad219ef3f7,AcceptabilityJudgment,290,0,filler,NULL,NULL,1,NULL,6001
1616626883,8cd3042e118345bbd1b3c1ad219ef3f7,AcceptabilityJudgment,155,0,test,19,<div style="width: 50em;"><!––  trial_type=test item_number=19 list_number=8 pron=She cond=f cond_code=Prepos.Null attested=Y ––><p style="text-align: center;" hidden>Did you hear a phone ringing in your apartment? Carl thinks that he left it there.</p><center><img style="text-align:center;" src="https://ryanchausse.com/aubrie_masters_italian/images/conversation_pics/19_8.png" alt="Did you hear a phone ringing in your apartment? Carl thinks that he left it there. While I was in the shower%2C heard it. "/></center></div>
1616626883,8cd3042e118345bbd1b3c1ad219ef3f7,AcceptabilityJudgment,155,0,test,19,NULL,6,NULL,10638
1616626883,8cd3042e118345bbd1b3c1ad219ef3f7,AcceptabilityJudgment,296,0,filler,NULL,<div style="width: 50em;"><!––  trial_type=filler item_number=f35 attested=7 ––><p style="text-align: center;" hidden>Merry Christmas! I’m very thankful to have a friend like you!</p><center><img style="text-align:center;" src="https://ryanchausse.com/aubrie_masters_italian/images/conversation_pics/f35_filler.png" alt="Merry Christmas! I’m very thankful to have a friend like you! Aw%2C thanks. Merry Christmas to you%2C too! "/></center></div>
1616626883,8cd3042e118345bbd1b3c1ad219ef3f7,AcceptabilityJudgment,296,0,filler,NULL,NULL,7,NULL,6261
1616626883,8cd3042e118345bbd1b3c1ad219ef3f7,AcceptabilityJudgment,228,0,test,28,<div style="width: 50em;"><!––  trial_type=test item_number=28 list_number=2 pron=YouPl cond=g cond_code=Rt2.OV attested=Y ––><p style="text-align: center;" hidden>Did you tell Daniel about the divorce?</p><center><img style="text-align:center;" src="https://ryanchausse.com/aubrie_masters_italian/images/conversation_pics/28_2.png" alt="Did you tell Daniel about the divorce? No%2C it’s your news.  You can tell Daniel when you’re ready."/></center></div>
1616626883,8cd3042e118345bbd1b3c1ad219ef3f7,AcceptabilityJudgment,228,0,test,28,NULL,7,NULL,9227
1616626883,8cd3042e118345bbd1b3c1ad219ef3f7,AcceptabilityJudgment,292,0,filler,NULL,<div style="width: 50em;"><!––  trial_type=filler item_number=f31 attested=2 ––><p style="text-align: center;" hidden>Did you get your keys back?</p><center><img style="text-align:center;" src="https://ryanchausse.com/aubrie_masters_italian/images/conversation_pics/f31_filler.png" alt="Did you get your keys back? Finally got its this morning! It’s been a stressful time… "/></center></div>
1616626883,8cd3042e118345bbd1b3c1ad219ef3f7,AcceptabilityJudgment,292,0,filler,NULL,NULL,4,NULL,9876
1616626883,8cd3042e118345bbd1b3c1ad219ef3f7,AcceptabilityJudgment,247,0,test,31,<div style="width: 50em;"><!––  trial_type=test item_number=31 list_number=8 pron=He cond=b cond_code=Rt.Null attested=Y ––><p style="text-align: center;" hidden>Are you doing anything fun with John for your birthday?</p><center><img style="text-align:center;" src="https://ryanchausse.com/aubrie_masters_italian/images/conversation_pics/31_8.png" alt="Are you doing anything fun with John for your birthday? Not really%2C he’s just making dinner for me. Promises to take me to Disneyworld next year though."/></center></div>
1616626883,8cd3042e118345bbd1b3c1ad219ef3f7,AcceptabilityJudgment,247,0,test,31,NULL,7,NULL,9866
1616626883,8cd3042e118345bbd1b3c1ad219ef3f7,AcceptabilityJudgment,293,0,filler,NULL,<div style="width: 50em;"><!––  trial_type=filler item_number=f32 attested=1 ––><p style="text-align: center;" hidden>Have you have some olives at your place?</p><center><img style="text-align:center;" src="https://ryanchausse.com/aubrie_masters_italian/images/conversation_pics/f32_filler.png" alt="Have you have some olives at your place? Yes%2C I have some. "/></center></div>
1616626883,8cd3042e118345bbd1b3c1ad219ef3f7,AcceptabilityJudgment,293,0,filler,NULL,NULL,1,NULL,5556
1616626883,8cd3042e118345bbd1b3c1ad219ef3f7,AcceptabilityJudgment,201,0,test,25,<div style="width: 50em;"><!––  trial_type=test item_number=25 list_number=4 pron=I cond=d cond_code=Embed.Null attested=N ––><p style="text-align: center;" hidden>I’m almost certain that saw Kelly while I was getting coffee this morning. I think she was wearing a wedding ring…</p><center><img style="text-align:center;" src="https://ryanchausse.com/aubrie_masters_italian/images/conversation_pics/25_4.png" alt="I’m almost certain that saw Kelly while I was getting coffee this morning. I think she was wearing a wedding ring… Wow. Well%2C I guess it’s time for me to move on. "/></center></div>
1616626883,8cd3042e118345bbd1b3c1ad219ef3f7,AcceptabilityJudgment,201,0,test,25,NULL,5,NULL,14004
1616626883,8cd3042e118345bbd1b3c1ad219ef3f7,AcceptabilityJudgment,276,0,filler,NULL,<div style="width: 50em;"><!––  trial_type=filler item_number=f15 attested=2 ––><p style="text-align: center;" hidden>Did you enjoy seeing your cousins at the family reunion?</p><center><img style="text-align:center;" src="https://ryanchausse.com/aubrie_masters_italian/images/conversation_pics/f15_filler.png" alt="Did you enjoy seeing your cousins at the family reunion? Yes%2C I had so much fun with they! "/></center></div>
1616626883,8cd3042e118345bbd1b3c1ad219ef3f7,AcceptabilityJudgment,276,0,filler,NULL,NULL,3,NULL,7373
1616626883,8cd3042e118345bbd1b3c1ad219ef3f7,AcceptabilityJudgment,173,0,test,21,<div style="width: 50em;"><!––  trial_type=test item_number=21 list_number=4 pron=YouSg cond=h cond_code=Rt2.Null attested=N ––><p style="text-align: center;" hidden>Do you think I did well on the exam yesterday?</p><center><img style="text-align:center;" src="https://ryanchausse.com/aubrie_masters_italian/images/conversation_pics/21_4.png" alt="Do you think I did well on the exam yesterday? Probably failed since you never went to class. "/></center></div>
1616626883,8cd3042e118345bbd1b3c1ad219ef3f7,AcceptabilityJudgment,173,0,test,21,NULL,7,NULL,7828
1616626883,8cd3042e118345bbd1b3c1ad219ef3f7,AcceptabilityJudgment,285,0,filler,NULL,<div style="width: 50em;"><!––  trial_type=filler item_number=f24 attested=7 ––><p style="text-align: center;" hidden>Did you take my basketball home after the game last week?</p><center><img style="text-align:center;" src="https://ryanchausse.com/aubrie_masters_italian/images/conversation_pics/f24_filler.png" alt="Did you take my basketball home after the game last week? Yes! Sorry I forgot to tell you.  "/></center></div>
1616626883,8cd3042e118345bbd1b3c1ad219ef3f7,AcceptabilityJudgment,285,0,filler,NULL,NULL,7,NULL,13342
1616626883,8cd3042e118345bbd1b3c1ad219ef3f7,AcceptabilityJudgment,109,0,test,13,<div style="width: 50em;"><!––  trial_type=test item_number=13 list_number=4 pron=YouSg cond=h cond_code=Rt2.Null attested=N ––><p style="text-align: center;" hidden>You bought too many souvenirs. Are going to regret it when you have to put them all in your bag.</p><center><img style="text-align:center;" src="https://ryanchausse.com/aubrie_masters_italian/images/conversation_pics/13_4.png" alt="You bought too many souvenirs. Are going to regret it when you have to put them all in your bag. I wanted to buy something for everyone! "/></center></div>
1616626883,8cd3042e118345bbd1b3c1ad219ef3f7,AcceptabilityJudgment,109,0,test,13,NULL,2,NULL,8412
1616626883,8cd3042e118345bbd1b3c1ad219ef3f7,AcceptabilityJudgment,274,0,filler,NULL,<div style="width: 50em;"><!––  trial_type=filler item_number=f13 attested=3 ––><p style="text-align: center;" hidden>Do you have potato chips?</p><center><img style="text-align:center;" src="https://ryanchausse.com/aubrie_masters_italian/images/conversation_pics/f13_filler.png" alt="Do you have potato chips? No%2C I haven’t bought every. "/></center></div>
1616626883,8cd3042e118345bbd1b3c1ad219ef3f7,AcceptabilityJudgment,274,0,filler,NULL,NULL,1,NULL,5608
1616626883,8cd3042e118345bbd1b3c1ad219ef3f7,AcceptabilityJudgment,219,0,test,27,<div style="width: 50em;"><!––  trial_type=test item_number=27 list_number=8 pron=She cond=f cond_code=Prepos.Null attested=Y ––><p style="text-align: center;" hidden>Did Carrie give the dog some food?</p><center><img style="text-align:center;" src="https://ryanchausse.com/aubrie_masters_italian/images/conversation_pics/27_8.png" alt="Did Carrie give the dog some food? This morning fed him.  He’ll be fine."/></center></div>
1616626883,8cd3042e118345bbd1b3c1ad219ef3f7,AcceptabilityJudgment,219,0,test,27,NULL,6,NULL,12421
1616626883,8cd3042e118345bbd1b3c1ad219ef3f7,AcceptabilityJudgment,265,0,filler,NULL,<div style="width: 50em;"><!––  trial_type=filler item_number=f4 attested=3 ––><p style="text-align: center;" hidden>Do you think that Tommy suspects that we’re planning a surprise party for him?</p><center><img style="text-align:center;" src="https://ryanchausse.com/aubrie_masters_italian/images/conversation_pics/f4_filler.png" alt="Do you think that Tommy suspects that we’re planning a surprise party for him? No%2C he hasn’t caught up! "/></center></div>
1616626883,8cd3042e118345bbd1b3c1ad219ef3f7,AcceptabilityJudgment,265,0,filler,NULL,NULL,6,NULL,10904
1616626883,8cd3042e118345bbd1b3c1ad219ef3f7,AcceptabilityJudgment,36,0,test,4,<div style="width: 50em;"><!––  trial_type=test item_number=4 list_number=2 pron=YouPl cond=g cond_code=Rt2.OV attested=Y ––><p style="text-align: center;" hidden>Can you take the dog for a walk today?</p><center><img style="text-align:center;" src="https://ryanchausse.com/aubrie_masters_italian/images/conversation_pics/4_2.png" alt="Can you take the dog for a walk today? Ugh. I can’t finish anything when I’m at home with you guys. You wanted me to wash the car yesterday!"/></center></div>
1616626883,8cd3042e118345bbd1b3c1ad219ef3f7,AcceptabilityJudgment,36,0,test,4,NULL,7,NULL,10719
1616626883,8cd3042e118345bbd1b3c1ad219ef3f7,AcceptabilityJudgment,267,0,filler,NULL,<div style="width: 50em;"><!––  trial_type=filler item_number=f6 attested=2 ––><p style="text-align: center;" hidden>I don’t think I’ll come back to Florida for Christmas this year. I always get into a fight with my dad…and I don’t have much money right now…nothing%2C I just wanted to tell you that I won’t come to your Christmas Party.</p><center><img style="text-align:center;" src="https://ryanchausse.com/aubrie_masters_italian/images/conversation_pics/f6_filler.png" alt="I don’t think I’ll come back to Florida for Christmas this year. I always get into a fight with my dad…and I don’t have much money right now…nothing%2C I just wanted to tell you that I won’t come to your Christmas Party. We will miss you at the party%2C but I understand. "/></center></div>
1616626883,8cd3042e118345bbd1b3c1ad219ef3f7,AcceptabilityJudgment,267,0,filler,NULL,NULL,6,NULL,18327
1616626883,8cd3042e118345bbd1b3c1ad219ef3f7,AcceptabilityJudgment,137,0,test,17,<div style="width: 50em;"><!––  trial_type=test item_number=17 list_number=4 pron=I cond=d cond_code=Embed.Null attested=N ––><p style="text-align: center;" hidden>I forgot that paid the electric bill for last month. It was $42.50.</p><center><img style="text-align:center;" src="https://ryanchausse.com/aubrie_masters_italian/images/conversation_pics/17_4.png" alt="I forgot that paid the electric bill for last month. It was $42.50. Okay%2C I’ll send you my half of it soon. "/></center></div>
1616626883,8cd3042e118345bbd1b3c1ad219ef3f7,AcceptabilityJudgment,137,0,test,17,NULL,1,NULL,12915
1616626883,8cd3042e118345bbd1b3c1ad219ef3f7,AcceptabilityJudgment,295,0,filler,NULL,<div style="width: 50em;"><!––  trial_type=filler item_number=f34 attested=6 ––><p style="text-align: center;" hidden>Will you be at the office today?</p><center><img style="text-align:center;" src="https://ryanchausse.com/aubrie_masters_italian/images/conversation_pics/f34_filler.png" alt="Will you be at the office today? Yes%2C if you want to pass by later it will be great. "/></center></div>
1616626883,8cd3042e118345bbd1b3c1ad219ef3f7,AcceptabilityJudgment,295,0,filler,NULL,NULL,7,NULL,8125
1616626883,8cd3042e118345bbd1b3c1ad219ef3f7,AcceptabilityJudgment,73,0,test,9,<div style="width: 50em;"><!––  trial_type=test item_number=9 list_number=4 pron=I cond=d cond_code=Embed.Null attested=N ––><p style="text-align: center;" hidden>I found a pink sock on the floor in the laundry room%2C is it yours?</p><center><img style="text-align:center;" src="https://ryanchausse.com/aubrie_masters_italian/images/conversation_pics/9_4.png" alt="I found a pink sock on the floor in the laundry room%2C is it yours? Probably! I think that been looking for that actually."/></center></div>
1616626883,8cd3042e118345bbd1b3c1ad219ef3f7,AcceptabilityJudgment,73,0,test,9,NULL,1,NULL,10445
1616626883,8cd3042e118345bbd1b3c1ad219ef3f7,AcceptabilityJudgment,287,0,filler,NULL,<div style="width: 50em;"><!––  trial_type=filler item_number=f26 attested=6 ––><p style="text-align: center;" hidden>Where did I leave my bicycle last night?....</p><center><img style="text-align:center;" src="https://ryanchausse.com/aubrie_masters_italian/images/conversation_pics/f26_filler.png" alt="Where did I leave my bicycle last night?.... I have no idea…maybe at the park? or by the train station? "/></center></div>
1616626883,8cd3042e118345bbd1b3c1ad219ef3f7,AcceptabilityJudgment,287,0,filler,NULL,NULL,7,NULL,6501
1616626883,8cd3042e118345bbd1b3c1ad219ef3f7,AcceptabilityJudgment,210,0,test,26,<div style="width: 50em;"><!––  trial_type=test item_number=26 list_number=6 pron=We cond=e cond_code=Prepos.Ov attested=Y ––><p style="text-align: center;" hidden>Have you guys ever tried escargot? </p><center><img style="text-align:center;" src="https://ryanchausse.com/aubrie_masters_italian/images/conversation_pics/26_6.png" alt="Have you guys ever tried escargot?  Yeah. While we were in France%2C we tried some. Surprisingly%2C we loved them!"/></center></div>
1616626883,8cd3042e118345bbd1b3c1ad219ef3f7,AcceptabilityJudgment,210,0,test,26,NULL,7,NULL,7802
1616626883,8cd3042e118345bbd1b3c1ad219ef3f7,AcceptabilityJudgment,289,0,filler,NULL,<div style="width: 50em;"><!––  trial_type=filler item_number=f28 attested=6 ––><p style="text-align: center;" hidden>You should not have told Hannah that you didn’t like her cake…she can't take criticism!</p><center><img style="text-align:center;" src="https://ryanchausse.com/aubrie_masters_italian/images/conversation_pics/f28_filler.png" alt="You should not have told Hannah that you didn’t like her cake…she can't take criticism! Before I didn’t know! I’ll be more careful in the future. "/></center></div>
1616626883,8cd3042e118345bbd1b3c1ad219ef3f7,AcceptabilityJudgment,289,0,filler,NULL,NULL,5,NULL,13066
1616626883,8cd3042e118345bbd1b3c1ad219ef3f7,AcceptabilityJudgment,119,0,test,15,<div style="width: 50em;"><!––  trial_type=test item_number=15 list_number=8 pron=He cond=b cond_code=Rt.Null attested=Y ––><p style="text-align: center;" hidden>How did your son’s show go yesterday?</p><center><img style="text-align:center;" src="https://ryanchausse.com/aubrie_masters_italian/images/conversation_pics/15_8.png" alt="How did your son’s show go yesterday? It went well! Posted a video of it on YouTube if you want to watch it. I’ll ask him for the link."/></center></div>
1616626883,8cd3042e118345bbd1b3c1ad219ef3f7,AcceptabilityJudgment,119,0,test,15,NULL,6,NULL,8839
1616626883,8cd3042e118345bbd1b3c1ad219ef3f7,AcceptabilityJudgment,269,0,filler,NULL,<div style="width: 50em;"><!––  trial_type=filler item_number=f8 attested=4 ––><p style="text-align: center;" hidden>Does your friend eat the meat?</p><center><img style="text-align:center;" src="https://ryanchausse.com/aubrie_masters_italian/images/conversation_pics/f8_filler.png" alt="Does your friend eat the meat? No%2C he’s a vegetarian. But he’ll bring his own food for the BBQ%2C don’t worry. "/></center></div>
1616626883,8cd3042e118345bbd1b3c1ad219ef3f7,AcceptabilityJudgment,269,0,filler,NULL,NULL,7,NULL,7186
1616626883,8cd3042e118345bbd1b3c1ad219ef3f7,AcceptabilityJudgment,174,0,test,22,<div style="width: 50em;"><!––  trial_type=test item_number=22 list_number=6 pron=We cond=a cond_code=Rt.OV attested=Y ––><p style="text-align: center;" hidden>Hey Iris%2C we heard that you’re making that delicious Chinese soup. We’re going to the store later tonight. Do you need any spices?</p><center><img style="text-align:center;" src="https://ryanchausse.com/aubrie_masters_italian/images/conversation_pics/22_6.png" alt="Hey Iris%2C we heard that you’re making that delicious Chinese soup. We’re going to the store later tonight. Do you need any spices? No%2C the store nearby your house doesn’t have the right spices. Thanks anyway."/></center></div>
1616626883,8cd3042e118345bbd1b3c1ad219ef3f7,AcceptabilityJudgment,174,0,test,22,NULL,6,NULL,13896
1616626883,8cd3042e118345bbd1b3c1ad219ef3f7,AcceptabilityJudgment,263,0,filler,NULL,<div style="width: 50em;"><!––  trial_type=filler item_number=f2 attested=3 ––><p style="text-align: center;" hidden>That photo looks amazing! Where did you take it?</p><center><img style="text-align:center;" src="https://ryanchausse.com/aubrie_masters_italian/images/conversation_pics/f2_filler.png" alt="That photo looks amazing! Where did you take it? I’m escaped in Catalina Island. "/></center></div>
1616626883,8cd3042e118345bbd1b3c1ad219ef3f7,AcceptabilityJudgment,263,0,filler,NULL,NULL,2,NULL,6742
1616626883,8cd3042e118345bbd1b3c1ad219ef3f7,AcceptabilityJudgment,100,0,test,12,<div style="width: 50em;"><!––  trial_type=test item_number=12 list_number=2 pron=YouPl cond=g cond_code=Rt2.OV attested=Y ––><p style="text-align: center;" hidden>Guess what we brought to the party!</p><center><img style="text-align:center;" src="https://ryanchausse.com/aubrie_masters_italian/images/conversation_pics/12_2.png" alt="Guess what we brought to the party! You guys brought wine and cheese%2C as usual. "/></center></div>
1616626883,8cd3042e118345bbd1b3c1ad219ef3f7,AcceptabilityJudgment,100,0,test,12,NULL,7,NULL,6401
1616626883,8cd3042e118345bbd1b3c1ad219ef3f7,AcceptabilityJudgment,282,0,filler,NULL,<div style="width: 50em;"><!––  trial_type=filler item_number=f21 attested=5 ––><p style="text-align: center;" hidden>Be careful on the way home%2C there are a lot of drunk drivers tonight.</p><center><img style="text-align:center;" src="https://ryanchausse.com/aubrie_masters_italian/images/conversation_pics/f21_filler.png" alt="Be careful on the way home%2C there are a lot of drunk drivers tonight. Don’t worry%2C I’ll text you when I will arrive home. "/></center></div>
1616626883,8cd3042e118345bbd1b3c1ad219ef3f7,AcceptabilityJudgment,282,0,filler,NULL,NULL,6,NULL,8688
1616626883,8cd3042e118345bbd1b3c1ad219ef3f7,AcceptabilityJudgment,55,0,test,7,<div style="width: 50em;"><!––  trial_type=test item_number=7 list_number=8 pron=He cond=b cond_code=Rt.Null attested=Y ––><p style="text-align: center;" hidden>Can your dad drive us to the mall on Sunday?</p><center><img style="text-align:center;" src="https://ryanchausse.com/aubrie_masters_italian/images/conversation_pics/7_8.png" alt="Can your dad drive us to the mall on Sunday? Can’t on Sunday. Maybe on Saturday he could%2C though."/></center></div>
1616626883,8cd3042e118345bbd1b3c1ad219ef3f7,AcceptabilityJudgment,55,0,test,7,NULL,7,NULL,8077
1616626883,8cd3042e118345bbd1b3c1ad219ef3f7,AcceptabilityJudgment,266,0,filler,NULL,<div style="width: 50em;"><!––  trial_type=filler item_number=f5 attested=4 ––><p style="text-align: center;" hidden>I don’t think the post office is open on Sundays%2C so you probably need to wait until Monday.</p><center><img style="text-align:center;" src="https://ryanchausse.com/aubrie_masters_italian/images/conversation_pics/f5_filler.png" alt="I don’t think the post office is open on Sundays%2C so you probably need to wait until Monday. Oh yeah%2C you have reason… "/></center></div>
1616626883,8cd3042e118345bbd1b3c1ad219ef3f7,AcceptabilityJudgment,266,0,filler,NULL,NULL,7,NULL,7203
1616626883,8cd3042e118345bbd1b3c1ad219ef3f7,AcceptabilityJudgment,128,0,test,16,<div style="width: 50em;"><!––  trial_type=test item_number=16 list_number=2 pron=They cond=c cond_code=Embed.Ov attested=Y ––><p style="text-align: center;" hidden>Is the Harrison family coming to the football game this weekend?</p><center><img style="text-align:center;" src="https://ryanchausse.com/aubrie_masters_italian/images/conversation_pics/16_2.png" alt="Is the Harrison family coming to the football game this weekend? No%2C they aren’t coming. I heard that they drove to the mountains to go skiing yesterday."/></center></div>
1616626883,8cd3042e118345bbd1b3c1ad219ef3f7,AcceptabilityJudgment,128,0,test,16,NULL,7,NULL,12601
1616626883,8cd3042e118345bbd1b3c1ad219ef3f7,AcceptabilityJudgment,280,0,filler,NULL,<div style="width: 50em;"><!––  trial_type=filler item_number=f19 attested=5 ––><p style="text-align: center;" hidden>I have an extra ticket for the concert on Friday if you want to come!</p><center><img style="text-align:center;" src="https://ryanchausse.com/aubrie_masters_italian/images/conversation_pics/f19_filler.png" alt="I have an extra ticket for the concert on Friday if you want to come! Thanks%2C but in fact I have plans already. "/></center></div>
1616626883,8cd3042e118345bbd1b3c1ad219ef3f7,AcceptabilityJudgment,280,0,filler,NULL,NULL,2,NULL,7498
1616626883,8cd3042e118345bbd1b3c1ad219ef3f7,AcceptabilityJudgment,192,0,test,24,<div style="width: 50em;"><!––  trial_type=test item_number=24 list_number=2 pron=They cond=c cond_code=Embed.Ov attested=Y ––><p style="text-align: center;" hidden>Is it strange that I’m excited to meet your parents? They seem so cool!</p><center><img style="text-align:center;" src="https://ryanchausse.com/aubrie_masters_italian/images/conversation_pics/24_2.png" alt="Is it strange that I’m excited to meet your parents? They seem so cool! They told me that they are also excited to talk to you%2C especially because of your recent vacation in India. "/></center></div>
1616626883,8cd3042e118345bbd1b3c1ad219ef3f7,AcceptabilityJudgment,192,0,test,24,NULL,4,NULL,14887
1616626883,8cd3042e118345bbd1b3c1ad219ef3f7,AcceptabilityJudgment,278,0,filler,NULL,<div style="width: 50em;"><!––  trial_type=filler item_number=f17 attested=4 ––><p style="text-align: center;" hidden>I was thinking of buying Mom a box of candy for her birthday.</p><center><img style="text-align:center;" src="https://ryanchausse.com/aubrie_masters_italian/images/conversation_pics/f17_filler.png" alt="I was thinking of buying Mom a box of candy for her birthday. Good idea! She love chocolate. "/></center></div>
1616626883,8cd3042e118345bbd1b3c1ad219ef3f7,AcceptabilityJudgment,278,0,filler,NULL,NULL,7,NULL,7278
1616626883,8cd3042e118345bbd1b3c1ad219ef3f7,AcceptabilityJudgment,110,0,test,14,<div style="width: 50em;"><!––  trial_type=test item_number=14 list_number=6 pron=We cond=a cond_code=Rt.OV attested=Y ––><p style="text-align: center;" hidden>Are you and Jane coming to the meeting?</p><center><img style="text-align:center;" src="https://ryanchausse.com/aubrie_masters_italian/images/conversation_pics/14_6.png" alt="Are you and Jane coming to the meeting? We will be about 20 minutes late according to Google Maps. "/></center></div>
1616626883,8cd3042e118345bbd1b3c1ad219ef3f7,AcceptabilityJudgment,110,0,test,14,NULL,7,NULL,8571
1616626883,8cd3042e118345bbd1b3c1ad219ef3f7,AcceptabilityJudgment,279,0,filler,NULL,<div style="width: 50em;"><!––  trial_type=filler item_number=f18 attested=3 ––><p style="text-align: center;" hidden>Panera makes the best ciabatta bread ever.</p><center><img style="text-align:center;" src="https://ryanchausse.com/aubrie_masters_italian/images/conversation_pics/f18_filler.png" alt="Panera makes the best ciabatta bread ever. Yea%2C I’ve tasted their%2C but I prefer to bake my own bread. "/></center></div>
1616626883,8cd3042e118345bbd1b3c1ad219ef3f7,AcceptabilityJudgment,279,0,filler,NULL,NULL,5,NULL,13878
1616626883,8cd3042e118345bbd1b3c1ad219ef3f7,AcceptabilityJudgment,45,0,test,5,<div style="width: 50em;"><!––  trial_type=test item_number=5 list_number=4 pron=YouSg cond=h cond_code=Rt2.Null attested=N ––><p style="text-align: center;" hidden>So%2C you can’t go on vacation anymore and you have to pick up dog poop. Woke up to the sound of your dog eating your couch this morning. Are you sure you made the right choice?</p><center><img style="text-align:center;" src="https://ryanchausse.com/aubrie_masters_italian/images/conversation_pics/5_4.png" alt="So%2C you can’t go on vacation anymore and you have to pick up dog poop. Woke up to the sound of your dog eating your couch this morning. Are you sure you made the right choice? This dog is destroying my life. "/></center></div>
1616626883,8cd3042e118345bbd1b3c1ad219ef3f7,AcceptabilityJudgment,45,0,test,5,NULL,7,NULL,15856
1616626883,8cd3042e118345bbd1b3c1ad219ef3f7,AcceptabilityJudgment,268,0,filler,NULL,<div style="width: 50em;"><!––  trial_type=filler item_number=f7 attested=5 ––><p style="text-align: center;" hidden>Do you want to go to the opera on Saturday?</p><center><img style="text-align:center;" src="https://ryanchausse.com/aubrie_masters_italian/images/conversation_pics/f7_filler.png" alt="Do you want to go to the opera on Saturday? Yeah! I think it would be really funny! "/></center></div>
1616626883,8cd3042e118345bbd1b3c1ad219ef3f7,AcceptabilityJudgment,268,0,filler,NULL,NULL,7,NULL,7322
1616626883,8cd3042e118345bbd1b3c1ad219ef3f7,AcceptabilityJudgment,91,0,test,11,<div style="width: 50em;"><!––  trial_type=test item_number=11 list_number=8 pron=She cond=f cond_code=Prepos.Null attested=Y ––><p style="text-align: center;" hidden>How many people did Jasmine invite to the game night?</p><center><img style="text-align:center;" src="https://ryanchausse.com/aubrie_masters_italian/images/conversation_pics/11_8.png" alt="How many people did Jasmine invite to the game night? If I remember correctly%2C said about 5. "/></center></div>
1616626883,8cd3042e118345bbd1b3c1ad219ef3f7,AcceptabilityJudgment,91,0,test,11,NULL,2,NULL,8270
1616626883,8cd3042e118345bbd1b3c1ad219ef3f7,AcceptabilityJudgment,286,0,filler,NULL,<div style="width: 50em;"><!––  trial_type=filler item_number=f25 attested=6 ––><p style="text-align: center;" hidden>I’m never drinking again.</p><center><img style="text-align:center;" src="https://ryanchausse.com/aubrie_masters_italian/images/conversation_pics/f25_filler.png" alt="I’m never drinking again. bahahahaha lmao you must be so hungover! "/></center></div>
1616626883,8cd3042e118345bbd1b3c1ad219ef3f7,AcceptabilityJudgment,286,0,filler,NULL,NULL,7,NULL,6006
1616626883,8cd3042e118345bbd1b3c1ad219ef3f7,AcceptabilityJudgment,9,0,test,1,<div style="width: 50em;"><!––  trial_type=test item_number=1 list_number=4 pron=I cond=d cond_code=Embed.Null attested=N ––><p style="text-align: center;" hidden>Did you hear the new Taylor Swift album?</p><center><img style="text-align:center;" src="https://ryanchausse.com/aubrie_masters_italian/images/conversation_pics/1_4.png" alt="Did you hear the new Taylor Swift album? Yeah! I’ll admit that love listening to it while I’m at work."/></center></div>
1616626883,8cd3042e118345bbd1b3c1ad219ef3f7,AcceptabilityJudgment,9,0,test,1,NULL,5,NULL,9871
1616626883,8cd3042e118345bbd1b3c1ad219ef3f7,AcceptabilityJudgment,272,0,filler,NULL,<div style="width: 50em;"><!––  trial_type=filler item_number=f11 attested=2 ––><p style="text-align: center;" hidden>What time do you want to get dinner?</p><center><img style="text-align:center;" src="https://ryanchausse.com/aubrie_masters_italian/images/conversation_pics/f11_filler.png" alt="What time do you want to get dinner? For me%2C 7:30 it’s perfect. "/></center></div>
1616626883,8cd3042e118345bbd1b3c1ad219ef3f7,AcceptabilityJudgment,272,0,filler,NULL,NULL,7,NULL,6623
1616626883,8cd3042e118345bbd1b3c1ad219ef3f7,AcceptabilityJudgment,146,0,test,18,<div style="width: 50em;"><!––  trial_type=test item_number=18 list_number=6 pron=We cond=e cond_code=Prepos.Ov attested=Y ––><p style="text-align: center;" hidden>Stella and I are leaving the city now. If there’s no traffic%2C we should arrive around 10pm.</p><center><img style="text-align:center;" src="https://ryanchausse.com/aubrie_masters_italian/images/conversation_pics/18_6.png" alt="Stella and I are leaving the city now. If there’s no traffic%2C we should arrive around 10pm. Sounds good. "/></center></div>
1616626883,8cd3042e118345bbd1b3c1ad219ef3f7,AcceptabilityJudgment,146,0,test,18,NULL,7,NULL,6819
1616626883,8cd3042e118345bbd1b3c1ad219ef3f7,AcceptabilityJudgment,275,0,filler,NULL,<div style="width: 50em;"><!––  trial_type=filler item_number=f14 attested=5 ––><p style="text-align: center;" hidden>I can’t remember exactly who came to the party…</p><center><img style="text-align:center;" src="https://ryanchausse.com/aubrie_masters_italian/images/conversation_pics/f14_filler.png" alt="I can’t remember exactly who came to the party… Me neither. I just remember that a lot of people was there. "/></center></div>
1616626883,8cd3042e118345bbd1b3c1ad219ef3f7,AcceptabilityJudgment,275,0,filler,NULL,NULL,4,NULL,10257
1616626883,8cd3042e118345bbd1b3c1ad219ef3f7,AcceptabilityJudgment,18,0,test,2,<div style="width: 50em;"><!––  trial_type=test item_number=2 list_number=6 pron=We cond=e cond_code=Prepos.Ov attested=Y ––><p style="text-align: center;" hidden>How was your tennis match?</p><center><img style="text-align:center;" src="https://ryanchausse.com/aubrie_masters_italian/images/conversation_pics/2_6.png" alt="How was your tennis match? Unfortunately%2C we lost the match. "/></center></div>
1616626883,8cd3042e118345bbd1b3c1ad219ef3f7,AcceptabilityJudgment,18,0,test,2,NULL,6,NULL,5870
1616626883,8cd3042e118345bbd1b3c1ad219ef3f7,AcceptabilityJudgment,264,0,filler,NULL,<div style="width: 50em;"><!––  trial_type=filler item_number=f3 attested=7 ––><p style="text-align: center;" hidden>Thank you for my new earrings. I haven’t taken them off!</p><center><img style="text-align:center;" src="https://ryanchausse.com/aubrie_masters_italian/images/conversation_pics/f3_filler.png" alt="Thank you for my new earrings. I haven’t taken them off! I’m happy to hear that. "/></center></div>
1616626883,8cd3042e118345bbd1b3c1ad219ef3f7,AcceptabilityJudgment,264,0,filler,NULL,NULL,7,NULL,7449
1616626883,8cd3042e118345bbd1b3c1ad219ef3f7,AcceptabilityJudgment,237,0,test,29,<div style="width: 50em;"><!––  trial_type=test item_number=29 list_number=4 pron=YouSg cond=h cond_code=Rt2.Null attested=N ––><p style="text-align: center;" hidden>I took your bicycle light by accident last night. I hope that’s okay. </p><center><img style="text-align:center;" src="https://ryanchausse.com/aubrie_masters_italian/images/conversation_pics/29_4.png" alt="I took your bicycle light by accident last night. I hope that’s okay.  Took my old light. I never use it anyway.  You can keep it!"/></center></div>
1616626883,8cd3042e118345bbd1b3c1ad219ef3f7,AcceptabilityJudgment,237,0,test,29,NULL,7,NULL,21426
1616626883,8cd3042e118345bbd1b3c1ad219ef3f7,AcceptabilityJudgment,277,0,filler,NULL,<div style="width: 50em;"><!––  trial_type=filler item_number=f16 attested=3 ––><p style="text-align: center;" hidden>What are you doing tonight?</p><center><img style="text-align:center;" src="https://ryanchausse.com/aubrie_masters_italian/images/conversation_pics/f16_filler.png" alt="What are you doing tonight? I’m taking my sister and her three friends to the movies%2C so I’m responsible for four childrens…it’s a little scary! "/></center></div>
1616626883,8cd3042e118345bbd1b3c1ad219ef3f7,AcceptabilityJudgment,277,0,filler,NULL,NULL,7,NULL,8795
1616626883,8cd3042e118345bbd1b3c1ad219ef3f7,AcceptabilityJudgment,164,0,test,20,<div style="width: 50em;"><!––  trial_type=test item_number=20 list_number=2 pron=YouPl cond=g cond_code=Rt2.OV attested=Y ––><p style="text-align: center;" hidden>I miss Fluffy!</p><center><img style="text-align:center;" src="https://ryanchausse.com/aubrie_masters_italian/images/conversation_pics/20_2.png" alt="I miss Fluffy! Awww! He’s sitting by the window waiting for you to return. You guys love each other%2C too cute!"/></center></div>
1616626883,8cd3042e118345bbd1b3c1ad219ef3f7,AcceptabilityJudgment,164,0,test,20,NULL,7,NULL,7752
1616626883,8cd3042e118345bbd1b3c1ad219ef3f7,AcceptabilityJudgment,271,0,filler,NULL,<div style="width: 50em;"><!––  trial_type=filler item_number=f10 attested=1 ––><p style="text-align: center;" hidden>Do you still have your Chemistry textbooks in your apartment?</p><center><img style="text-align:center;" src="https://ryanchausse.com/aubrie_masters_italian/images/conversation_pics/f10_filler.png" alt="Do you still have your Chemistry textbooks in your apartment? No%2C sorry. Those books%2C to my parents’ house%2C I brought. "/></center></div>
1616626883,8cd3042e118345bbd1b3c1ad219ef3f7,AcceptabilityJudgment,271,0,filler,NULL,NULL,1,NULL,9041
1616626883,8cd3042e118345bbd1b3c1ad219ef3f7,AcceptabilityJudgment,183,0,test,23,<div style="width: 50em;"><!––  trial_type=test item_number=23 list_number=8 pron=He cond=b cond_code=Rt.Null attested=Y ––><p style="text-align: center;" hidden>Nathan wants to know if you are bringing your tools to work today.</p><center><img style="text-align:center;" src="https://ryanchausse.com/aubrie_masters_italian/images/conversation_pics/23_8.png" alt="Nathan wants to know if you are bringing your tools to work today. Yes…but he needs to buy his own. Broke something last time."/></center></div>
1616626883,8cd3042e118345bbd1b3c1ad219ef3f7,AcceptabilityJudgment,183,0,test,23,NULL,4,NULL,11256
1616626883,8cd3042e118345bbd1b3c1ad219ef3f7,AcceptabilityJudgment,294,0,filler,NULL,<div style="width: 50em;"><!––  trial_type=filler item_number=f33 attested=4 ––><p style="text-align: center;" hidden>Jesse said me to bring a hat for you%2C which one do you want?</p><center><img style="text-align:center;" src="https://ryanchausse.com/aubrie_masters_italian/images/conversation_pics/f33_filler.png" alt="Jesse said me to bring a hat for you%2C which one do you want? Bring the black sunhat please! "/></center></div>
1616626883,8cd3042e118345bbd1b3c1ad219ef3f7,AcceptabilityJudgment,294,0,filler,NULL,NULL,5,NULL,14586
1616626883,8cd3042e118345bbd1b3c1ad219ef3f7,AcceptabilityJudgment,82,0,test,10,<div style="width: 50em;"><!––  trial_type=test item_number=10 list_number=6 pron=We cond=e cond_code=Prepos.Ov attested=Y ––><p style="text-align: center;" hidden>You and Gina brought your beach towels%2C right?</p><center><img style="text-align:center;" src="https://ryanchausse.com/aubrie_masters_italian/images/conversation_pics/10_6.png" alt="You and Gina brought your beach towels%2C right? Sorry%2C we didn’t bring any with us. "/></center></div>
1616626883,8cd3042e118345bbd1b3c1ad219ef3f7,AcceptabilityJudgment,82,0,test,10,NULL,5,NULL,8145
1616626883,8cd3042e118345bbd1b3c1ad219ef3f7,AcceptabilityJudgment,291,0,filler,NULL,<div style="width: 50em;"><!––  trial_type=filler item_number=f30 attested=1 ––><p style="text-align: center;" hidden>Have you seen my backpack?</p><center><img style="text-align:center;" src="https://ryanchausse.com/aubrie_masters_italian/images/conversation_pics/f30_filler.png" alt="Have you seen my backpack? I think he’s in the closet under the skiing equipment… "/></center></div>
1616626883,8cd3042e118345bbd1b3c1ad219ef3f7,AcceptabilityJudgment,291,0,filler,NULL,NULL,1,NULL,6615
1616626883,8cd3042e118345bbd1b3c1ad219ef3f7,AcceptabilityJudgment,256,0,test,32,<div style="width: 50em;"><!––  trial_type=test item_number=32 list_number=2 pron=They cond=c cond_code=Embed.Ov attested=Y ––><p style="text-align: center;" hidden>Do you know where my roommates are?</p><center><img style="text-align:center;" src="https://ryanchausse.com/aubrie_masters_italian/images/conversation_pics/32_2.png" alt="Do you know where my roommates are? I’m not sure…they’ve been gone all day. I think that they were walking towards the beach when I saw them."/></center></div>
1616626883,8cd3042e118345bbd1b3c1ad219ef3f7,AcceptabilityJudgment,256,0,test,32,NULL,7,NULL,8945
1616626883,8cd3042e118345bbd1b3c1ad219ef3f7,AcceptabilityJudgment,288,0,filler,NULL,<div style="width: 50em;"><!––  trial_type=filler item_number=f27 attested=6 ––><p style="text-align: center;" hidden>I’m nearby your apartment if you want to meet for a coffee.</p><center><img style="text-align:center;" src="https://ryanchausse.com/aubrie_masters_italian/images/conversation_pics/f27_filler.png" alt="I’m nearby your apartment if you want to meet for a coffee. Now%2C I can’t. But maybe next week! "/></center></div>
1616626883,8cd3042e118345bbd1b3c1ad219ef3f7,AcceptabilityJudgment,288,0,filler,NULL,NULL,7,NULL,6727
1616626883,8cd3042e118345bbd1b3c1ad219ef3f7,AcceptabilityJudgment,27,0,test,3,<div style="width: 50em;"><!––  trial_type=test item_number=3 list_number=8 pron=She cond=f cond_code=Prepos.Null attested=Y ––><p style="text-align: center;" hidden>New York City is my new favorite city%2C it’s so beautiful!</p><center><img style="text-align:center;" src="https://ryanchausse.com/aubrie_masters_italian/images/conversation_pics/3_8.png" alt="New York City is my new favorite city%2C it’s so beautiful! Nice! Carly has a request for you. Next time%2C wants you to buy her an “I love NY” shirt."/></center></div>
1616626883,8cd3042e118345bbd1b3c1ad219ef3f7,AcceptabilityJudgment,27,0,test,3,NULL,5,NULL,10008
1616626883,8cd3042e118345bbd1b3c1ad219ef3f7,AcceptabilityJudgment,281,0,filler,NULL,<div style="width: 50em;"><!––  trial_type=filler item_number=f20 attested=4 ––><p style="text-align: center;" hidden>I left my food processor next to your front door%2C enjoy!</p><center><img style="text-align:center;" src="https://ryanchausse.com/aubrie_masters_italian/images/conversation_pics/f20_filler.png" alt="I left my food processor next to your front door%2C enjoy! Thanks! Tomorrow I use it to make pumpkin soup. "/></center></div>
1616626883,8cd3042e118345bbd1b3c1ad219ef3f7,AcceptabilityJudgment,281,0,filler,NULL,NULL,4,NULL,10483
1616626883,8cd3042e118345bbd1b3c1ad219ef3f7,AcceptabilityJudgment,46,0,test,6,<div style="width: 50em;"><!––  trial_type=test item_number=6 list_number=6 pron=We cond=a cond_code=Rt.OV attested=Y ––><p style="text-align: center;" hidden>How was your Friday?</p><center><img style="text-align:center;" src="https://ryanchausse.com/aubrie_masters_italian/images/conversation_pics/6_6.png" alt="How was your Friday? We had a nice dinner and then we saw a movie after work. I don’t remember what happened afterwards."/></center></div>
1616626883,8cd3042e118345bbd1b3c1ad219ef3f7,AcceptabilityJudgment,46,0,test,6,NULL,7,NULL,8658
1616626883,8cd3042e118345bbd1b3c1ad219ef3f7,AcceptabilityJudgment,283,0,filler,NULL,<div style="width: 50em;"><!––  trial_type=filler item_number=f22 attested=7 ––><p style="text-align: center;" hidden>I saw on the weather there’s a big storm coming. Is it going to rain when you’re in Oregon??</p><center><img style="text-align:center;" src="https://ryanchausse.com/aubrie_masters_italian/images/conversation_pics/f22_filler.png" alt="I saw on the weather there’s a big storm coming. Is it going to rain when you’re in Oregon?? Yes. It’s not going to be very fun camping in the rain… "/></center></div>
1616626883,8cd3042e118345bbd1b3c1ad219ef3f7,AcceptabilityJudgment,283,0,filler,NULL,NULL,6,NULL,10187
# Columns below this comment are as follows:
# 1. Time results were received.
# 2. MD5 hash of participant's IP address.
# 3. Controller name.
# 4. Item number.
# 5. Element number.
# 6. Type.
# 7. Group.
# 8. Field name.
# 9. Field value.
1616626883,8cd3042e118345bbd1b3c1ad219ef3f7,Form,5,0,feedback,NULL,fdbk_problems_difficulties,No
1616626883,8cd3042e118345bbd1b3c1ad219ef3f7,Form,5,0,feedback,NULL,fdbk_experiment_about,Di stabilire quanto apparissero realistiche o meno conversazioni in inglese sia formali che informali per studenti di inglese ma madrelingua italiani%2C tenendo conto sia della grammatica che del registro usato a seconda del tipo di conversazione.
1616626883,8cd3042e118345bbd1b3c1ad219ef3f7,Form,5,0,feedback,NULL,fdbk_other_notes_questions,
1616626883,8cd3042e118345bbd1b3c1ad219ef3f7,Form,5,0,feedback,NULL,above_ability,no
#
# Results on Thursday March 25 2021 06:42:15 UTC.
# USER AGENT: Mozilla/5.0 (Linux; Android 6.0.1; VFD 600) AppleWebKit/537.36 (KHTML, like Gecko) Chrome/70.0.3538.80 Mobile Safari/537.36
# Design number was non-random = 4
#
# Columns below this comment are as follows:
# 1. Time results were received.
# 2. MD5 hash of participant's IP address.
# 3. Controller name.
# 4. Item number.
# 5. Element number.
# 6. Type.
# 7. Group.
# 8. Field name.
# 9. Field value.
1616654535,0a791a055c54b528b210ed85e584cde0,Form,2,0,intro,NULL,name,Elisa Agostinelli
1616654535,0a791a055c54b528b210ed85e584cde0,Form,2,0,intro,NULL,age,21
1616654535,0a791a055c54b528b210ed85e584cde0,Form,2,0,intro,NULL,bilingual_languages,English 
1616654535,0a791a055c54b528b210ed85e584cde0,Form,2,0,intro,NULL,EngHist,
1616654535,0a791a055c54b528b210ed85e584cde0,Form,2,0,intro,NULL,EngAct,yes
1616654535,0a791a055c54b528b210ed85e584cde0,Form,2,0,intro,NULL,EngAct,no
1616654535,0a791a055c54b528b210ed85e584cde0,Form,2,0,intro,NULL,EngAct,no
1616654535,0a791a055c54b528b210ed85e584cde0,Form,2,0,intro,NULL,EngAct,no
1616654535,0a791a055c54b528b210ed85e584cde0,Form,2,0,intro,NULL,EngAct,no
1616654535,0a791a055c54b528b210ed85e584cde0,Form,2,0,intro,NULL,EngAct,no
1616654535,0a791a055c54b528b210ed85e584cde0,Form,2,0,intro,NULL,EngAct,no
1616654535,0a791a055c54b528b210ed85e584cde0,Form,2,0,intro,NULL,EngAct,no
1616654535,0a791a055c54b528b210ed85e584cde0,Form,2,0,intro,NULL,EngAct,no
1616654535,0a791a055c54b528b210ed85e584cde0,Form,2,0,intro,NULL,EngAct,no
1616654535,0a791a055c54b528b210ed85e584cde0,Form,2,0,intro,NULL,consent,yes
1616654535,0a791a055c54b528b210ed85e584cde0,Form,2,0,intro,NULL,EngN,yes
1616654535,0a791a055c54b528b210ed85e584cde0,Form,2,0,intro,NULL,bilingual,yes
1616654535,0a791a055c54b528b210ed85e584cde0,Form,2,0,intro,NULL,EngL,B1-B2
1616654535,0a791a055c54b528b210ed85e584cde0,Form,2,0,intro,NULL,AoA,5-10
1616654535,0a791a055c54b528b210ed85e584cde0,Form,2,0,intro,NULL,EngC,no
# The lines below this comment are in groups of 2.
# The formats of the lines in each of these groups are as follows:
#
# Line 1:
#     Col. 1: Time results were received.
#     Col. 2: MD5 hash of participant's IP address.
#     Col. 3: Controller name.
#     Col. 4: Item number.
#     Col. 5: Element number.
#     Col. 6: Type.
#     Col. 7: Group.
#     Col. 8: Sentence (or sentence MD5).
# Line 2:
#     Col. 1: Time results were received.
#     Col. 2: MD5 hash of participant's IP address.
#     Col. 3: Controller name.
#     Col. 4: Item number.
#     Col. 5: Element number.
#     Col. 6: Type.
#     Col. 7: Group.
#     Col. 8: Question (NULL if none).
#     Col. 9: Answer.
#     Col. 10: Whether or not answer was correct (NULL if N/A).
#     Col. 11: Time taken to answer.
1616654535,0a791a055c54b528b210ed85e584cde0,AcceptabilityJudgment,262,0,practice,NULL,<div style="width: 50em;"><!––  trial_type=practice item_number=f1 attested=5 ––><p style="text-align: center;" hidden>Did you get your computer already repaired?</p><center><img style="text-align:center;" src="https://ryanchausse.com/aubrie_masters_italian/images/conversation_pics/f1_filler.png" alt="Did you get your computer already repaired? No%2C I'm waiting to get my paycheck. "/></center></div>
1616654535,0a791a055c54b528b210ed85e584cde0,AcceptabilityJudgment,262,0,practice,NULL,NULL,1,NULL,20813
1616654535,0a791a055c54b528b210ed85e584cde0,AcceptabilityJudgment,270,0,practice,NULL,<div style="width: 50em;"><!––  trial_type=practice item_number=f9 attested=1 ––><p style="text-align: center;" hidden>Did Cindy leave?</p><center><img style="text-align:center;" src="https://ryanchausse.com/aubrie_masters_italian/images/conversation_pics/f9_filler.png" alt="Did Cindy leave? Yes! Has already left%2C Cindy. "/></center></div>
1616654535,0a791a055c54b528b210ed85e584cde0,AcceptabilityJudgment,270,0,practice,NULL,NULL,1,NULL,10766
1616654535,0a791a055c54b528b210ed85e584cde0,AcceptabilityJudgment,284,0,practice,NULL,<div style="width: 50em;"><!––  trial_type=practice item_number=f23 attested=7 ––><p style="text-align: center;" hidden>How’s your ankle doing?</p><center><img style="text-align:center;" src="https://ryanchausse.com/aubrie_masters_italian/images/conversation_pics/f23_filler.png" alt="How’s your ankle doing? It’s a lot better but I can’t run for at least a week… "/></center></div>
1616654535,0a791a055c54b528b210ed85e584cde0,AcceptabilityJudgment,284,0,practice,NULL,NULL,5,NULL,9605
1616654535,0a791a055c54b528b210ed85e584cde0,AcceptabilityJudgment,269,0,filler,NULL,<div style="width: 50em;"><!––  trial_type=filler item_number=f8 attested=4 ––><p style="text-align: center;" hidden>Does your friend eat the meat?</p><center><img style="text-align:center;" src="https://ryanchausse.com/aubrie_masters_italian/images/conversation_pics/f8_filler.png" alt="Does your friend eat the meat? No%2C he’s a vegetarian. But he’ll bring his own food for the BBQ%2C don’t worry. "/></center></div>
1616654535,0a791a055c54b528b210ed85e584cde0,AcceptabilityJudgment,269,0,filler,NULL,NULL,1,NULL,15734
